"Time (s)","Linear Acceleration x (m/s^2)","Linear Acceleration y (m/s^2)","Linear Acceleration z (m/s^2)"
8.879353700E-2,9.453800321E-2,8.344700187E-2,2.933700010E-2
9.377445800E-2,8.871799707E-2,5.411599949E-2,2.678900026E-2
9.875530600E-2,8.431799710E-2,3.039599955E-2,2.449600026E-2
1.037362170E-1,8.073399961E-2,1.199399959E-2,2.310799994E-2
1.087169110E-1,7.690999657E-2,-2.405999927E-3,2.270000055E-2
1.136978320E-1,7.263699919E-2,-1.290600002E-2,2.697099932E-2
1.186787310E-1,6.736700237E-2,-2.200799994E-2,3.696300089E-2
1.236595800E-1,6.046900153E-2,-2.903399989E-2,5.319400132E-2
1.286402720E-1,5.220599845E-2,-3.491099924E-2,7.243400067E-2
1.336211060E-1,4.291399941E-2,-3.948500007E-2,8.872099966E-2
1.386020290E-1,3.381999955E-2,-4.244099930E-2,1.000270024E-1
1.435829470E-1,2.514100075E-2,-4.308300093E-2,1.060699970E-1
1.485636410E-1,1.870799996E-2,-4.276699945E-2,1.089890003E-1
1.535445630E-1,1.515800040E-2,-4.347100109E-2,1.095369980E-1
1.585253870E-1,1.423299965E-2,-4.607700184E-2,1.077399999E-1
1.635060790E-1,1.438700035E-2,-4.950200021E-2,1.011959985E-1
1.684870000E-1,1.342500001E-2,-4.892300069E-2,9.270499647E-2
1.734679040E-1,1.584699936E-2,-5.663299933E-2,8.029299974E-2
1.784487520E-1,2.053100057E-2,-6.414099783E-2,6.544700265E-2
1.834294450E-1,2.153199911E-2,-6.631600112E-2,5.082599819E-2
1.884103660E-1,2.527000010E-2,-7.099299878E-2,3.765999898E-2
1.933912140E-1,2.889899909E-2,-7.313799858E-2,2.559500001E-2
1.983721350E-1,2.841800079E-2,-7.166299969E-2,1.594300009E-2
2.033528140E-1,2.675700001E-2,-7.054600120E-2,9.433999658E-3
2.083337350E-1,2.159699984E-2,-6.926999986E-2,6.717999931E-3
2.133145840E-1,2.002299950E-2,-7.118599862E-2,8.440000005E-3
2.182955000E-1,1.703999937E-2,-6.639800221E-2,1.785999909E-2
2.232761940E-1,1.356799994E-2,-6.218399853E-2,3.235699981E-2
2.282570380E-1,1.379099954E-2,-6.385699660E-2,4.229300097E-2
2.332379420E-1,1.505499985E-2,-6.717500091E-2,5.560600013E-2
2.382186370E-1,1.817299984E-2,-7.289399952E-2,7.359799743E-2
2.431995390E-1,2.181700058E-2,-8.072499931E-2,9.367500246E-2
2.481803870E-1,2.351900004E-2,-8.813899755E-2,1.143319979E-1
2.531613850E-1,2.219899930E-2,-9.260199964E-2,1.339229941E-1
2.581419970E-1,2.427100018E-2,-9.540499747E-2,1.504890025E-1
2.631229180E-1,3.039800003E-2,-9.847799689E-2,1.601669937E-1
2.681037380E-1,3.976900131E-2,-1.049590036E-1,1.575029939E-1
2.730846590E-1,4.764899984E-2,-1.081010029E-1,1.421539932E-1
2.780653530E-1,5.542099848E-2,-1.081240028E-1,1.149350032E-1
2.830462390E-1,6.380899996E-2,-1.009280011E-1,8.626700193E-2
2.880270870E-1,7.179699838E-2,-9.363900125E-2,5.637099966E-2
2.930077800E-1,7.920899987E-2,-8.748900145E-2,3.207299858E-2
2.979886960E-1,8.054099977E-2,-7.976000011E-2,1.493200008E-2
3.029695440E-1,7.790400088E-2,-7.497999817E-2,1.092000050E-3
3.079502360E-1,7.030399889E-2,-7.402999699E-2,-1.144700032E-2
3.129311580E-1,4.494300112E-2,-1.301559955E-1,-4.714599997E-2
3.179120810E-1,-7.778999861E-3,-1.347710043E-1,-5.980800092E-2
3.228930040E-1,-2.301399969E-2,-9.236600250E-2,-3.201099858E-2
3.278738380E-1,1.223300025E-2,-3.986399993E-2,3.331900015E-2
3.328545300E-1,4.234800115E-2,-4.118000157E-3,9.152299911E-2
3.378354510E-1,4.013499990E-2,1.190000027E-2,1.251869947E-1
3.428162990E-1,1.742300019E-2,1.207400020E-2,1.371169984E-1
3.477969910E-1,-1.319499966E-2,-1.855899952E-2,1.234200001E-1
3.527778360E-1,-4.784100130E-2,-4.064099863E-2,9.707599878E-2
3.577587690E-1,-5.340399966E-2,-3.909000009E-2,8.059699833E-2
3.627394630E-1,-3.640300035E-2,-2.348200046E-2,6.932999939E-2
3.677203840E-1,-1.169199962E-2,-2.057299949E-2,4.429100081E-2
3.727012320E-1,5.712999962E-3,-2.392799966E-2,5.489999894E-3
3.776821530E-1,1.006099954E-2,-1.671599969E-2,-3.895900026E-2
3.826628480E-1,7.857000455E-3,-4.817999899E-3,-8.403199911E-2
3.876437830E-1,3.539999947E-3,1.357499976E-2,-1.277509928E-1
3.926246310E-1,-3.589999978E-4,3.128999844E-2,-1.716649979E-1
3.976053230E-1,-7.821000181E-3,4.558999836E-2,-2.184150070E-1
4.025862440E-1,-1.372699998E-2,4.317700118E-2,-2.799499929E-1
4.075671670E-1,-3.683900088E-2,4.488399997E-2,-2.999359965E-1
4.125480160E-1,-5.660500005E-2,5.052800104E-2,-3.099879920E-1
4.175289270E-1,-8.065400273E-2,6.462000310E-2,-3.034070134E-1
4.225096210E-1,-1.139400005E-1,8.214899898E-2,-2.828840017E-1
4.274905420E-1,-1.555079967E-1,1.019200012E-1,-2.513349950E-1
4.324713860E-1,-2.044679970E-1,1.157570034E-1,-2.020259947E-1
4.374520790E-1,-2.545540035E-1,1.213999987E-1,-1.437429935E-1
4.424330000E-1,-3.040080070E-1,1.182530001E-1,-8.837000281E-2
4.474139080E-1,-3.458060026E-1,1.068599969E-1,-4.419999942E-2
4.523947560E-1,-3.805209994E-1,9.793800116E-2,-9.438999929E-3
4.573754480E-1,-4.049730003E-1,9.609899670E-2,2.749899961E-2
4.623563500E-1,-3.963789940E-1,1.531739980E-1,9.791000187E-2
4.673371980E-1,-3.484509885E-1,1.575269997E-1,1.403210014E-1
4.723181200E-1,-3.234530091E-1,1.135720015E-1,1.344749928E-1
4.772988330E-1,-3.397819996E-1,5.663499981E-2,7.035899907E-2
4.822797540E-1,-3.420549929E-1,1.721600071E-2,-1.172999968E-3
4.872606020E-1,-3.061420023E-1,-3.273000009E-3,-5.961100012E-2
4.922412750E-1,-2.534680068E-1,-9.897000156E-3,-1.031709984E-1
4.972221970E-1,-1.932619959E-1,1.053300034E-2,-1.279940009E-1
5.022031150E-1,-1.251129955E-1,2.585599944E-2,-1.408929974E-1
5.071839630E-1,-9.613200277E-2,3.198499978E-2,-1.664090008E-1
5.121646550E-1,-1.092109978E-1,3.229200095E-2,-1.991440058E-1
5.171455760E-1,-1.371040046E-1,3.649599850E-2,-2.139669955E-1
5.221264990E-1,-1.640799940E-1,5.058500171E-2,-1.987549961E-1
5.271073470E-1,-1.909590065E-1,6.198399886E-2,-1.625799984E-1
5.320880400E-1,-2.192299962E-1,6.886799634E-2,-1.177420020E-1
5.370689610E-1,-2.562119961E-1,7.048100233E-2,-6.942100078E-2
5.420498090E-1,-2.937150002E-1,6.774900109E-2,-2.093300037E-2
5.470307300E-1,-3.119690120E-1,6.039199978E-2,2.813700028E-2
5.520114240E-1,-3.114410043E-1,6.216799840E-2,8.890800178E-2
5.569923460E-1,-2.818419933E-1,5.311900005E-2,1.114130020E-1
5.619731940E-1,-2.519060075E-1,3.451399878E-2,1.239899993E-1
5.669541150E-1,-2.183160037E-1,1.298999973E-2,1.166210026E-1
5.719348090E-1,-1.697999984E-1,-1.284599956E-2,9.521199763E-2
5.769157300E-1,-1.140689999E-1,-4.092299938E-2,6.620900333E-2
5.818965780E-1,-5.562900007E-2,-6.868299842E-2,1.363900024E-2
5.868774990E-1,1.155200042E-2,-9.797699749E-2,-6.442499906E-2
5.918581790E-1,7.927999645E-2,-1.054529995E-1,-1.204919964E-1
5.968390230E-1,1.281629950E-1,-8.978900313E-2,-1.558980048E-1
6.018199460E-1,1.605010033E-1,-6.876700372E-2,-1.838389933E-1
6.068006400E-1,1.859900057E-1,-5.431000143E-2,-2.118110061E-1
6.117815610E-1,1.961649954E-1,-4.689500108E-2,-2.459349930E-1
6.167624660E-1,1.976650059E-1,-4.249599949E-2,-2.759160101E-1
6.217433140E-1,1.894800067E-1,-4.089200124E-2,-2.999649942E-1
6.267240060E-1,1.745679975E-1,-3.737400100E-2,-3.100740016E-1
6.317049320E-1,1.501889974E-1,-3.200700134E-2,-3.137559891E-1
6.366857800E-1,1.199600026E-1,-2.471200004E-2,-3.166379929E-1
6.416667010E-1,9.028500319E-2,-1.606599987E-2,-3.205389977E-1
6.466476190E-1,5.856499821E-2,-6.213000044E-3,-3.214899898E-1
6.516285430E-1,1.639799960E-2,3.712000092E-3,-3.233999908E-1
6.566092230E-1,-2.135699987E-2,3.479999956E-3,-3.244799972E-1
6.615901440E-1,-5.156200007E-2,1.890999964E-3,-3.207480013E-1
6.665709920E-1,-8.102499694E-2,5.470999982E-3,-3.191030025E-1
6.715516890E-1,-1.052979976E-1,8.271000348E-3,-3.253850043E-1
6.765325340E-1,-1.204390004E-1,5.977999885E-3,-3.396669924E-1
6.815134420E-1,-1.256559938E-1,-9.619999910E-4,-3.602870107E-1
6.864941360E-1,-1.189759970E-1,-8.495000191E-3,-3.816359937E-1
6.914750570E-1,-1.088429987E-1,-1.164900046E-2,-3.962239921E-1
6.964558860E-1,-1.066109985E-1,-1.238299999E-2,-4.022130072E-1
7.014368070E-1,-1.165089980E-1,-1.527000032E-2,-3.995339870E-1
7.064175020E-1,-1.380909979E-1,-1.815400086E-2,-3.993070126E-1
7.113983460E-1,-1.619320065E-1,-1.726800017E-2,-4.016790092E-1
7.163792690E-1,-1.810050011E-1,-1.949599944E-2,-3.885079920E-1
7.213601780E-1,-1.987529993E-1,-2.344899997E-2,-3.657140136E-1
7.263408720E-1,-2.102060020E-1,-3.031500056E-2,-3.470309973E-1
7.313217930E-1,-2.164320052E-1,-3.459500149E-2,-3.188050091E-1
7.363026420E-1,-2.355870008E-1,-3.003899939E-2,-2.778359950E-1
7.412835630E-1,-2.533999979E-1,-4.197100177E-2,-2.709189951E-1
7.462644860E-1,-2.531580031E-1,-7.009699941E-2,-2.856880128E-1
7.512451170E-1,-2.425570041E-1,-1.030040011E-1,-2.994830012E-1
7.562260380E-1,-2.267989963E-1,-1.313090026E-1,-3.167749941E-1
7.612067330E-1,-2.088920027E-1,-1.489720047E-1,-3.317579925E-1
7.661875630E-1,-1.995469928E-1,-1.581230015E-1,-3.409349918E-1
7.711685630E-1,-2.033720016E-1,-1.636569947E-1,-3.429139853E-1
7.761494110E-1,-2.108999938E-1,-1.719139963E-1,-3.381769955E-1
7.811303270E-1,-2.183919996E-1,-1.811369956E-1,-3.190650046E-1
7.861110210E-1,-2.307060063E-1,-1.863449961E-1,-2.854500115E-1
7.910918650E-1,-2.493669987E-1,-1.867450029E-1,-2.381920069E-1
7.960725600E-1,-2.732990086E-1,-1.855320036E-1,-1.853179932E-1
8.010534810E-1,-2.968499959E-1,-1.894139946E-1,-1.308880001E-1
8.060343290E-1,-3.150520027E-1,-1.978189945E-1,-7.585299760E-2
8.110152550E-1,-3.285279870E-1,-2.092680037E-1,-2.390700020E-2
8.159959490E-1,-3.402029872E-1,-2.218099982E-1,2.269200049E-2
8.209768700E-1,-3.538849950E-1,-2.324829996E-1,6.667599827E-2
8.259577180E-1,-3.680860102E-1,-2.399359941E-1,1.079929993E-1
8.309384100E-1,-3.768930137E-1,-2.490260005E-1,1.425780058E-1
8.359193360E-1,-3.762139976E-1,-2.638320029E-1,1.590729952E-1
8.409002590E-1,-3.591980040E-1,-2.821890116E-1,1.445609927E-1
8.458811070E-1,-3.291760087E-1,-2.929799855E-1,9.943100065E-2
8.508620190E-1,-2.968600094E-1,-2.958669960E-1,3.351299837E-2
8.558427140E-1,-2.606639862E-1,-2.933889925E-1,-3.231000155E-2
8.608236350E-1,-2.308769971E-1,-2.982369959E-1,-8.407499641E-2
8.658044680E-1,-2.122830003E-1,-3.085640073E-1,-1.201879978E-1
8.707851600E-1,-2.016839981E-1,-3.195070028E-1,-1.395639926E-1
8.757663120E-1,-1.888650060E-1,-3.245579898E-1,-1.265919954E-1
8.807470220E-1,-1.796309948E-1,-3.259820044E-1,-9.757000208E-2
8.857278660E-1,-1.700730026E-1,-3.287169933E-1,-5.149599910E-2
8.907087890E-1,-1.662569940E-1,-3.303309977E-1,1.613499969E-2
8.956894780E-1,-1.723349988E-1,-3.295780122E-1,9.763000160E-2
9.006703990E-1,-1.931580007E-1,-3.248260021E-1,1.783419997E-1
9.056512560E-1,-2.380360067E-1,-3.161090016E-1,2.533819973E-1
9.106319490E-1,-2.978799939E-1,-3.058150113E-1,3.177540004E-1
9.156128700E-1,-3.565450013E-1,-2.929190099E-1,3.735949993E-1
9.205937230E-1,-3.989450037E-1,-2.790899873E-1,4.168620110E-1
9.255747210E-1,-4.373329878E-1,-2.596000135E-1,4.434950054E-1
9.305555690E-1,-4.803029895E-1,-2.413900048E-1,4.394550025E-1
9.355362800E-1,-5.212540030E-1,-2.303339988E-1,4.065339863E-1
9.405171250E-1,-5.486530066E-1,-2.263409942E-1,3.503189981E-1
9.454980480E-1,-5.518000126E-1,-2.383420020E-1,2.708689868E-1
9.504789860E-1,-5.368250012E-1,-2.366420031E-1,2.198240012E-1
9.554596800E-1,-5.047969818E-1,-2.292809933E-1,1.747740060E-1
9.604405240E-1,-4.606600106E-1,-2.318200022E-1,1.258369982E-1
9.654214470E-1,-4.178169966E-1,-2.410649955E-1,8.381400257E-2
9.704021420E-1,-3.760080040E-1,-2.563779950E-1,5.089899898E-2
9.753830480E-1,-3.365600109E-1,-2.727789879E-1,2.999299951E-2
9.803638960E-1,-3.048099875E-1,-2.834730148E-1,2.533500083E-2
9.853448170E-1,-2.840070128E-1,-2.849409878E-1,4.076199979E-2
9.903255210E-1,-2.826870084E-1,-2.759639919E-1,8.668699861E-2
9.953064420E-1,-2.959960103E-1,-2.666119933E-1,1.593070030E-1
1.000287291E0,-3.120709956E-1,-2.572790086E-1,2.488790005E-1
1.005268202E0,-3.288249969E-1,-2.539629936E-1,3.318380117E-1
1.010248896E0,-3.399299979E-1,-2.435840070E-1,3.985239863E-1
1.015229817E0,-3.435139954E-1,-2.241719961E-1,4.403170049E-1
1.020210675E0,-3.403809965E-1,-2.053869963E-1,4.586209953E-1
1.025191596E0,-3.420870006E-1,-1.933590025E-1,4.497680068E-1
1.030172291E0,-3.440270126E-1,-1.876949966E-1,4.184879959E-1
1.035153130E0,-3.459619880E-1,-1.781840026E-1,3.672870100E-1
1.040134053E0,-3.459140062E-1,-1.657869965E-1,2.938939929E-1
1.045114747E0,-3.357239962E-1,-1.579760015E-1,2.010850012E-1
1.050095658E0,-3.061200082E-1,-1.567070037E-1,9.402199835E-2
1.055076506E0,-2.591330111E-1,-1.639280021E-1,-2.227400057E-2
1.060057428E0,-2.041150033E-1,-1.802400053E-1,-1.416150033E-1
1.065038122E0,-1.491180062E-1,-2.003120035E-1,-2.559869885E-1
1.070019043E0,-1.063340008E-1,-2.184129953E-1,-3.575069904E-1
1.074999891E0,-7.134100050E-2,-2.402350008E-1,-4.389789999E-1
1.079980822E0,-3.555500135E-2,-2.649079859E-1,-4.892809987E-1
1.084961517E0,-1.373999985E-3,-2.875829935E-1,-5.043669939E-1
1.089942438E0,2.367199957E-2,-3.069359958E-1,-4.857259989E-1
1.094923295E0,3.145100176E-2,-3.115650117E-1,-4.259949923E-1
1.099904216E0,2.943800017E-2,-3.300800025E-1,-3.771870136E-1
1.104885139E0,1.716700010E-2,-3.551709950E-1,-3.254359961E-1
1.109865833E0,-4.400000034E-4,-3.702009916E-1,-2.678830028E-1
1.114846677E0,-1.075800043E-2,-3.773719966E-1,-2.148180008E-1
1.119827601E0,-1.448099967E-2,-3.785119951E-1,-1.693640053E-1
1.124808295E0,-1.535100024E-2,-3.782750070E-1,-1.350450069E-1
1.129789139E0,-1.623900048E-2,-3.794260025E-1,-1.155060008E-1
1.134770139E0,-2.288700081E-2,-3.793889880E-1,-1.072160006E-1
1.139750992E0,-3.765600175E-2,-3.792949915E-1,-1.158429980E-1
1.144731685E0,-6.166400015E-2,-3.782629967E-1,-1.439419985E-1
1.149712587E0,-9.006500244E-2,-3.769260049E-1,-1.902360022E-1
1.154693435E0,-1.229360029E-1,-3.697279990E-1,-2.426580042E-1
1.159674356E0,-1.593209952E-1,-3.599469960E-1,-2.976830006E-1
1.164655050E0,-1.946219951E-1,-3.512920141E-1,-3.581120074E-1
1.169635894E0,-2.272689939E-1,-3.462829888E-1,-4.228630066E-1
1.174616817E0,-2.575980127E-1,-3.472569883E-1,-4.866679907E-1
1.179597746E0,-2.816709876E-1,-3.550580144E-1,-5.427550077E-1
1.184578440E0,-2.954390049E-1,-3.673009872E-1,-5.843679905E-1
1.189559284E0,-3.031330109E-1,-3.786270022E-1,-6.083369851E-1
1.194540201E0,-3.112039864E-1,-3.860920072E-1,-6.151270270E-1
1.199520895E0,-3.210450113E-1,-3.890640140E-1,-6.022340059E-1
1.204501817E0,-3.308970034E-1,-3.892059922E-1,-5.683619976E-1
1.209482665E0,-3.376930058E-1,-3.895750046E-1,-5.172579885E-1
1.214463586E0,-3.411499858E-1,-3.940210044E-1,-4.577319920E-1
1.219444509E0,-3.375959992E-1,-4.012160003E-1,-3.969579935E-1
1.224425208E0,-3.242810071E-1,-4.051850140E-1,-3.394019902E-1
1.229406052E0,-3.046920002E-1,-4.054870009E-1,-2.898449898E-1
1.234386975E0,-2.809750140E-1,-4.075799882E-1,-2.542859912E-1
1.239367684E0,-2.559370100E-1,-4.148730040E-1,-2.367559969E-1
1.244348605E0,-2.318830043E-1,-4.223670065E-1,-2.399069965E-1
1.249329453E0,-2.145549953E-1,-4.247870147E-1,-2.636229992E-1
1.254310379E0,-2.094420046E-1,-4.207220078E-1,-3.021340072E-1
1.259291302E0,-2.155009955E-1,-4.129369855E-1,-3.479450047E-1
1.264271997E0,-2.331179976E-1,-4.012809992E-1,-3.990879953E-1
1.269252827E0,-2.626619935E-1,-3.875519931E-1,-4.539200068E-1
1.274233827E0,-2.984269857E-1,-3.706310093E-1,-5.122789741E-1
1.279214675E0,-3.344469965E-1,-3.521780074E-1,-5.714799762E-1
1.284195371E0,-3.608979881E-1,-3.390110135E-1,-6.248419881E-1
1.289176292E0,-3.724839985E-1,-3.357560039E-1,-6.664459705E-1
1.294157140E0,-3.689830005E-1,-3.415159881E-1,-6.895139813E-1
1.299137829E0,-3.555850089E-1,-3.531470001E-1,-6.929010153E-1
1.304118750E0,-3.349049985E-1,-3.703050017E-1,-6.785629988E-1
1.309099598E0,-3.044439852E-1,-3.946300149E-1,-6.520900130E-1
1.314080499E0,-2.691569924E-1,-4.213680029E-1,-6.148229837E-1
1.319061193E0,-2.335209996E-1,-4.430130124E-1,-5.688560009E-1
1.324042345E0,-1.995220035E-1,-4.552229941E-1,-5.212919712E-1
1.329022973E0,-1.695760041E-1,-4.610309899E-1,-4.763459861E-1
1.334003894E0,-1.493239999E-1,-4.629330039E-1,-4.327279925E-1
1.338984588E0,-1.389330029E-1,-4.641999900E-1,-3.889580071E-1
1.343965513E0,-1.357900053E-1,-4.652119875E-1,-3.446849883E-1
1.348946361E0,-1.392139941E-1,-4.647449851E-1,-3.026269972E-1
1.353927297E0,-1.463589966E-1,-4.609879851E-1,-2.626599967E-1
1.358908221E0,-1.569910049E-1,-4.521079957E-1,-2.271099985E-1
1.363888915E0,-1.729660034E-1,-4.370239973E-1,-1.954150051E-1
1.368869773E0,-1.975570023E-1,-4.119960070E-1,-1.676329970E-1
1.373850696E0,-2.309570014E-1,-3.809919953E-1,-1.428530067E-1
1.378831619E0,-2.679550052E-1,-3.466759920E-1,-1.202839985E-1
1.383812338E0,-3.029170036E-1,-3.099029958E-1,-9.795100242E-2
1.388793182E0,-3.321639895E-1,-2.695020139E-1,-7.433799654E-2
1.393774105E0,-3.556900024E-1,-2.295189947E-1,-5.129799992E-2
1.398755023E0,-3.699769974E-1,-1.911489964E-1,-2.788599953E-2
1.403735717E0,-3.734259903E-1,-1.570689976E-1,-3.537999932E-3
1.408716561E0,-3.665440083E-1,-1.259109974E-1,2.308999933E-2
1.413697494E0,-3.444389999E-1,-1.013029963E-1,5.326699838E-2
1.418678418E0,-3.074100018E-1,-8.455300331E-2,8.309199661E-2
1.423659112E0,-2.606129944E-1,-7.843200117E-2,1.140379980E-1
1.428640038E0,-2.088090032E-1,-7.960099727E-2,1.470309943E-1
1.433620886E0,-1.572149992E-1,-7.938600332E-2,1.763630062E-1
1.438601578E0,-1.091080010E-1,-7.525700331E-2,1.974020004E-1
1.443582500E0,-6.589899957E-2,-6.946299970E-2,2.088699937E-1
1.448563348E0,-2.807500027E-2,-6.137999892E-2,2.119150013E-1
1.453544254E0,3.587000072E-3,-4.789099842E-2,2.070730031E-1
1.458524948E0,2.585400082E-2,-2.784200013E-2,1.964959949E-1
1.463505869E0,3.811400011E-2,-6.120999809E-3,1.816489995E-1
1.468486717E0,4.179099947E-2,1.387299970E-2,1.655579954E-1
1.473467715E0,4.154299945E-2,3.306100145E-2,1.510889977E-1
1.478448333E0,3.993700072E-2,5.300800130E-2,1.395139992E-1
1.483429240E0,4.139899835E-2,7.209499925E-2,1.292330027E-1
1.488410088E0,4.588799924E-2,8.812999725E-2,1.176870018E-1
1.493391009E0,5.126700178E-2,1.005750000E-1,1.048759967E-1
1.498371736E0,5.723100156E-2,1.112969965E-1,9.462700039E-2
1.503352657E0,6.468199939E-2,1.226840019E-1,8.802299947E-2
1.508333506E0,7.575099915E-2,1.328150034E-1,8.331499994E-2
1.513314437E0,9.137400240E-2,1.385570019E-1,7.673999667E-2
1.518295131E0,1.132579967E-1,1.336379945E-1,6.803199649E-2
1.523276052E0,1.404049993E-1,1.188500002E-1,5.889400095E-2
1.528256905E0,1.706150025E-1,9.897500277E-2,4.915799946E-2
1.533237826E0,1.993799955E-1,7.809399813E-2,3.817699850E-2
1.538218521E0,2.246910036E-1,5.660099909E-2,2.319999970E-2
1.543199470E0,2.492800057E-1,3.429900110E-2,6.748000160E-3
1.548180393E0,2.731670141E-1,1.077499986E-2,-1.068999991E-2
1.553161241E0,2.962329984E-1,-1.602300070E-2,-2.802499942E-2
1.558141957E0,3.195379972E-1,-4.742300138E-2,-4.572299868E-2
1.563122878E0,3.411839902E-1,-7.911899686E-2,-6.333000213E-2
1.568103727E0,3.613080084E-1,-1.049219966E-1,-7.824499905E-2
1.573084658E0,3.763220012E-1,-1.218610033E-1,-9.011299908E-2
1.578065581E0,3.836109936E-1,-1.310710013E-1,-9.967099875E-2
1.583046275E0,3.816510141E-1,-1.365250051E-1,-1.051480025E-1
1.588027196E0,3.727410138E-1,-1.357160062E-1,-1.021220013E-1
1.593008044E0,3.557170033E-1,-1.279170066E-1,-9.114699811E-2
1.597988746E0,3.299669921E-1,-1.155499965E-1,-7.285399735E-2
1.602969667E0,2.969810069E-1,-1.012500003E-1,-4.960000142E-2
1.607950515E0,2.605060041E-1,-8.604399860E-2,-2.384600043E-2
1.612931446E0,2.236649990E-1,-6.947399676E-2,3.396000015E-3
1.617912369E0,1.895949990E-1,-5.059900135E-2,2.895700000E-2
1.622893077E0,1.579319984E-1,-3.230699897E-2,5.317300186E-2
1.627873999E0,1.287090033E-1,-1.601300016E-2,7.503499836E-2
1.632854847E0,1.015599966E-1,-1.957000000E-3,9.348300099E-2
1.637835539E0,7.914199680E-2,1.094700024E-2,1.082409993E-1
1.642816460E0,6.337700039E-2,2.286799997E-2,1.173669994E-1
1.647797383E0,5.331899971E-2,3.355399892E-2,1.200060025E-1
1.652778227E0,4.776300117E-2,4.114399850E-2,1.156049967E-1
1.657758920E0,4.600000009E-2,4.606699944E-2,1.067219973E-1
1.662739841E0,4.931300133E-2,5.051700026E-2,9.655000269E-2
1.667720749E0,5.688000098E-2,5.586300045E-2,8.419899642E-2
1.672701597E0,6.529600173E-2,6.256800145E-2,7.067900151E-2
1.677682518E0,7.311499864E-2,6.990999728E-2,5.628800020E-2
1.682663246E0,8.051700145E-2,7.744400203E-2,4.145500064E-2
1.687644168E0,8.746100217E-2,8.423700184E-2,2.773699909E-2
1.692625020E0,9.269899875E-2,8.947999775E-2,1.554999966E-2
1.697605712E0,9.829399735E-2,9.265200049E-2,5.799999926E-3
1.702586619E0,1.052569970E-1,9.812799841E-2,-1.615999965E-3
1.707567542E0,1.099990010E-1,1.079979986E-1,-6.463999860E-3
1.712548390E0,1.100900024E-1,1.201099977E-1,-1.149199996E-2
1.717529297E0,1.049280018E-1,1.301809996E-1,-1.698300056E-2
1.722509992E0,9.773200005E-2,1.362600029E-1,-2.297100052E-2
1.727490913E0,9.031700343E-2,1.395889968E-1,-2.769800089E-2
1.732471756E0,8.476799726E-2,1.412959993E-1,-3.122499958E-2
1.737452677E0,8.090300113E-2,1.399790049E-1,-3.557800129E-2
1.742433371E0,7.972499728E-2,1.347129941E-1,-4.295499995E-2
1.747414293E0,8.242399991E-2,1.259019971E-1,-5.428399891E-2
1.752395141E0,8.885800093E-2,1.155330017E-1,-6.928399950E-2
1.757376062E0,9.700799733E-2,1.040460020E-1,-8.549900353E-2
1.762356741E0,1.059530005E-1,9.217499942E-2,-1.018539965E-1
1.767337662E0,1.135570034E-1,7.999700308E-2,-1.173639968E-1
1.772318510E0,1.197049990E-1,6.776399910E-2,-1.333470047E-1
1.777299194E0,1.267919987E-1,5.536099896E-2,-1.496459991E-1
1.782280115E0,1.334190071E-1,4.371400177E-2,-1.657489985E-1
1.787261038E0,1.373829991E-1,3.164999932E-2,-1.800359935E-1
1.792241876E0,1.384450048E-1,2.085099928E-2,-1.905079931E-1
1.797222797E0,1.414009929E-1,1.118899975E-2,-1.979279965E-1
1.802203491E0,1.486179978E-1,2.057000063E-3,-1.993310004E-1
1.807184413E0,1.653099954E-1,-7.292000111E-3,-1.926639974E-1
1.812165261E0,1.798769981E-1,-1.962400042E-2,-1.830530018E-1
1.817146182E0,1.793989986E-1,-4.264200106E-2,-1.858350039E-1
1.822126852E0,1.640139967E-1,-7.382500172E-2,-1.851239949E-1
1.827107773E0,1.382980049E-1,-1.068800017E-1,-1.786810011E-1
1.832088602E0,1.043180004E-1,-1.411139965E-1,-1.672700047E-1
1.837069523E0,8.396399766E-2,-1.635839939E-1,-1.455630064E-1
1.842050218E0,8.875100315E-2,-1.680890024E-1,-1.165779978E-1
1.847031124E0,9.953899682E-2,-1.658830047E-1,-8.917599916E-2
1.852011972E0,1.005719975E-1,-1.687780023E-1,-6.667999923E-2
1.856992893E0,9.124699980E-2,-1.748629957E-1,-4.957700148E-2
1.861973816E0,7.765900344E-2,-1.781329960E-1,-3.512899950E-2
1.866954511E0,6.525599957E-2,-1.760250032E-1,-2.216500044E-2
1.871935355E0,5.341799930E-2,-1.707630008E-1,-1.268799976E-2
1.876916283E0,4.030799866E-2,-1.662980020E-1,-7.724000141E-3
1.881896977E0,2.369100042E-2,-1.625349969E-1,-5.859999917E-3
1.886877912E0,5.034000147E-3,-1.590780020E-1,-6.411999930E-3
1.891858760E0,-1.333799958E-2,-1.556099951E-1,-7.875000127E-3
1.896839681E0,-3.014300019E-2,-1.506650001E-1,-1.134399977E-2
1.901820343E0,-4.492700100E-2,-1.460700035E-1,-1.609800011E-2
1.906801264E0,-5.822400004E-2,-1.414359957E-1,-2.226299979E-2
1.911782112E0,-6.803099811E-2,-1.382399946E-1,-2.968600020E-2
1.916763033E0,-7.332299650E-2,-1.376619935E-1,-3.696500137E-2
1.921743727E0,-7.525900006E-2,-1.397539973E-1,-4.349000007E-2
1.926724648E0,-7.635899633E-2,-1.441719979E-1,-4.826299846E-2
1.931705497E0,-7.717700303E-2,-1.514099985E-1,-5.042200163E-2
1.936686418E0,-7.648999989E-2,-1.607760042E-1,-5.112700164E-2
1.941667112E0,-7.415100187E-2,-1.729930043E-1,-5.105299875E-2
1.946648268E0,-7.515499741E-2,-1.892160028E-1,-5.048299953E-2
1.951628962E0,-8.042799681E-2,-2.074919939E-1,-5.277200043E-2
1.956609883E0,-9.626500309E-2,-2.247949988E-1,-6.015799940E-2
1.961590747E0,-1.128930002E-1,-2.367220074E-1,-6.925900280E-2
1.966571668E0,-1.187890023E-1,-2.355380058E-1,-6.421799958E-2
1.971552362E0,-1.108009964E-1,-2.257799953E-1,-6.069599837E-2
1.976533297E0,-9.125799686E-2,-2.142059952E-1,-5.979299918E-2
1.981513914E0,-6.036499888E-2,-1.993290037E-1,-6.002900004E-2
1.986494835E0,-4.197100177E-2,-1.899179965E-1,-6.730400026E-2
1.991475759E0,-4.845200107E-2,-1.927949935E-1,-7.957299799E-2
1.996456607E0,-6.276699901E-2,-1.991190016E-1,-8.989900351E-2
2.001437299E0,-6.860200316E-2,-2.001570016E-1,-9.330700338E-2
2.006418201E0,-6.254100055E-2,-1.970909983E-1,-9.028799832E-2
2.011399124E0,-5.041600019E-2,-1.955969930E-1,-8.333899826E-2
2.016379972E0,-3.605499864E-2,-1.979130059E-1,-7.554599643E-2
2.021360883E0,-1.977800019E-2,-2.000209987E-1,-6.611900032E-2
2.026341578E0,5.849999725E-4,-1.992820054E-1,-5.564000085E-2
2.031322499E0,2.581500076E-2,-1.953070015E-1,-4.578899965E-2
2.036303417E0,5.314899981E-2,-1.898269951E-1,-3.765299916E-2
2.041284265E0,7.929400355E-2,-1.828269958E-1,-3.152700141E-2
2.046264957E0,1.033380032E-1,-1.762699932E-1,-2.643400058E-2
2.051245879E0,1.258929968E-1,-1.694899946E-1,-2.248799987E-2
2.056226727E0,1.478320062E-1,-1.623429954E-1,-2.067199908E-2
2.061207648E0,1.669159979E-1,-1.543280035E-1,-2.017699927E-2
2.066188361E0,1.825020015E-1,-1.448500007E-1,-2.207900025E-2
2.071169282E0,1.953539997E-1,-1.349049956E-1,-2.328100055E-2
2.076150205E0,2.063380033E-1,-1.252260059E-1,-2.443500049E-2
2.081131128E0,2.187020034E-1,-1.145460010E-1,-2.612400055E-2
2.086111977E0,2.314649969E-1,-9.923499823E-2,-2.779399976E-2
2.091092898E0,2.436539978E-1,-8.002699912E-2,-3.104599938E-2
2.096073597E0,2.547470033E-1,-5.616800115E-2,-3.722300008E-2
2.101054441E0,2.638750076E-1,-2.961199917E-2,-4.516499862E-2
2.106035135E0,2.708590031E-1,-2.492000116E-3,-5.336999893E-2
2.111016057E0,2.759990096E-1,2.411800064E-2,-6.038099900E-2
2.115996905E0,2.811329961E-1,5.096200109E-2,-6.503199786E-2
2.120977826E0,2.834529877E-1,8.028999716E-2,-6.811500341E-2
2.125958763E0,2.813499868E-1,1.117319986E-1,-7.077199966E-2
2.130939457E0,2.738580108E-1,1.425690055E-1,-7.468599826E-2
2.135920316E0,2.634589970E-1,1.697279960E-1,-7.877500355E-2
2.140901239E0,2.507979870E-1,1.935629994E-1,-8.370500058E-2
2.145881934E0,2.369029969E-1,2.151840031E-1,-8.848000318E-2
2.150862850E0,2.213169932E-1,2.357369959E-1,-9.440699965E-2
2.155843773E0,2.037409991E-1,2.532649934E-1,-1.015100032E-1
2.160824621E0,1.857859939E-1,2.669039965E-1,-1.099390015E-1
2.165805323E0,1.674630046E-1,2.761560082E-1,-1.174470037E-1
2.170786245E0,1.507620066E-1,2.804920077E-1,-1.223689988E-1
2.175767168E0,1.354209930E-1,2.802579999E-1,-1.257960051E-1
2.180748020E0,1.214250028E-1,2.753460109E-1,-1.276430041E-1
2.185728941E0,1.099089980E-1,2.657989860E-1,-1.275250018E-1
2.190709635E0,1.019729972E-1,2.517119944E-1,-1.221309975E-1
2.195690547E0,9.881699830E-2,2.334199995E-1,-1.118780002E-1
2.200671395E0,9.954799712E-2,2.125930041E-1,-9.690900147E-2
2.205652317E0,1.023679972E-1,1.893550009E-1,-7.676099986E-2
2.210632996E0,1.072409973E-1,1.644449979E-1,-5.496000126E-2
2.215613917E0,1.151610017E-1,1.392170042E-1,-3.158200160E-2
2.220594756E0,1.259039938E-1,1.160340011E-1,-1.032599993E-2
2.225575754E0,1.380719990E-1,9.812700003E-2,9.424000047E-3
2.230556602E0,1.474239975E-1,8.520500362E-2,2.726699971E-2
2.235537299E0,1.528629959E-1,7.339999825E-2,4.326599836E-2
2.240518143E0,1.538300067E-1,6.325300038E-2,5.836300179E-2
2.245499076E0,1.514739990E-1,5.424100161E-2,7.197300345E-2
2.250479999E0,1.462060064E-1,4.652199894E-2,8.400999755E-2
2.255460693E0,1.381620020E-1,3.983499855E-2,9.198000282E-2
2.260441604E0,1.281500012E-1,3.410200030E-2,9.650400281E-2
2.265422453E0,1.171410009E-1,2.798400074E-2,9.744200110E-2
2.270403145E0,1.082699969E-1,2.002499998E-2,9.461700171E-2
2.275384066E0,1.015549973E-1,1.078400016E-2,8.852700144E-2
2.280364914E0,9.835500270E-2,1.999999949E-4,7.937700301E-2
2.285345835E0,9.809300303E-2,-1.063000038E-2,6.662999839E-2
2.290326511E0,1.008199975E-1,-2.216600068E-2,5.189900100E-2
2.295307432E0,1.061299965E-1,-3.356600180E-2,3.653899953E-2
2.300288280E0,1.136350036E-1,-4.562399909E-2,2.195299976E-2
2.305269201E0,1.243619993E-1,-5.858900025E-2,8.623999543E-3
2.310250109E0,1.381160021E-1,-7.030300051E-2,-3.762000008E-3
2.315230803E0,1.544820070E-1,-7.833299786E-2,-1.533200033E-2
2.320211724E0,1.696819961E-1,-8.258499950E-2,-2.765199915E-2
2.325192573E0,1.816509962E-1,-8.202999830E-2,-3.936000168E-2
2.330173265E0,1.909700036E-1,-7.743500173E-2,-5.153499916E-2
2.335154186E0,1.967660040E-1,-6.820499897E-2,-6.325499713E-2
2.340135100E0,2.003809959E-1,-5.411700159E-2,-7.646100223E-2
2.345115948E0,1.993139982E-1,-3.524899855E-2,-9.060099721E-2
2.350096869E0,1.941830069E-1,-1.453599986E-2,-1.058719978E-1
2.355077564E0,1.863120049E-1,8.355000056E-3,-1.207699999E-1
2.360058485E0,1.767580062E-1,3.285999969E-2,-1.339659989E-1
2.365039333E0,1.642629951E-1,5.712600052E-2,-1.459899992E-1
2.370020254E0,1.492229998E-1,8.017600328E-2,-1.551630050E-1
2.375000948E0,1.330409944E-1,1.002139971E-1,-1.632679999E-1
2.379981869E0,1.181169972E-1,1.163719967E-1,-1.697510034E-1
2.384962737E0,1.054750010E-1,1.301269978E-1,-1.751299948E-1
2.389943658E0,9.644699842E-2,1.406210065E-1,-1.791130006E-1
2.394924581E0,9.126699716E-2,1.480579972E-1,-1.790439934E-1
2.399905261E0,8.942099661E-2,1.529230028E-1,-1.759880036E-1
2.404886182E0,9.005200118E-2,1.568789929E-1,-1.703500003E-1
2.409867030E0,9.138700366E-2,1.592770070E-1,-1.635420024E-1
2.414847732E0,9.162499756E-2,1.604930013E-1,-1.555420011E-1
2.419828653E0,9.053800255E-2,1.617210060E-1,-1.455660015E-1
2.424809576E0,8.935000002E-2,1.618739963E-1,-1.342020035E-1
2.429790439E0,8.520700037E-2,1.611029953E-1,-1.208330020E-1
2.434771360E0,7.889000326E-2,1.597190052E-1,-1.066259965E-1
2.439752054E0,7.141199708E-2,1.587399989E-1,-9.149400145E-2
2.444732984E0,6.294000149E-2,1.566800028E-1,-7.721699774E-2
2.449713908E0,5.494799837E-2,1.540099978E-1,-6.534899771E-2
2.454694756E0,4.638399929E-2,1.516190022E-1,-5.623700097E-2
2.459675672E0,3.602200001E-2,1.497060061E-1,-4.837400094E-2
2.464656366E0,2.268799953E-2,1.468989998E-1,-4.303999990E-2
2.469637206E0,8.573000319E-3,1.436329931E-1,-3.896500170E-2
2.474618129E0,-5.142999813E-3,1.387200058E-1,-3.449200094E-2
2.479598824E0,-1.937299967E-2,1.319169998E-1,-2.823200077E-2
2.484579759E0,-3.375799954E-2,1.232189983E-1,-2.086200006E-2
2.489560682E0,-4.884099960E-2,1.126850024E-1,-1.221999992E-2
2.494541530E0,-6.365299970E-2,1.004910022E-1,-3.072000109E-3
2.499522465E0,-7.805699855E-2,8.754300326E-2,6.862999871E-3
2.504503159E0,-9.149599820E-2,7.335399836E-2,1.583299972E-2
2.509484081E0,-1.040339991E-1,5.798099935E-2,2.492499910E-2
2.514464929E0,-1.144469976E-1,4.089400172E-2,3.519900143E-2
2.519445850E0,-1.215009987E-1,2.205299959E-2,4.552499950E-2
2.524426773E0,-1.268250048E-1,3.978999797E-3,5.653100088E-2
2.529407482E0,-1.313399971E-1,-1.277699973E-2,6.750699878E-2
2.534388403E0,-1.350789964E-1,-2.803399973E-2,7.756400108E-2
2.539369251E0,-1.380070001E-1,-4.075000063E-2,8.573800325E-2
2.544350173E0,-1.413699985E-1,-5.130700022E-2,9.119100124E-2
2.549330867E0,-1.448269933E-1,-5.911400169E-2,9.504400194E-2
2.554311711E0,-1.486140043E-1,-6.452900171E-2,9.921099991E-2
2.559292634E0,-1.527290046E-1,-6.720200181E-2,1.046509966E-1
2.564273557E0,-1.569139957E-1,-6.684999913E-2,1.099610031E-1
2.569254251E0,-1.606460065E-1,-6.586600095E-2,1.136989966E-1
2.574235163E0,-1.658670008E-1,-6.265299767E-2,1.163690016E-1
2.579216011E0,-1.724690050E-1,-5.580500141E-2,1.176759973E-1
2.584196932E0,-1.806239933E-1,-4.719800130E-2,1.182740033E-1
2.589177850E0,-1.897650063E-1,-3.897099942E-2,1.169010028E-1
2.594158544E0,-1.994410008E-1,-3.079400025E-2,1.149090007E-1
2.599139465E0,-2.095440030E-1,-2.233600058E-2,1.116549969E-1
2.604120299E0,-2.217759937E-1,-1.371899992E-2,1.075199991E-1
2.609100992E0,-2.347539961E-1,-7.207999937E-3,1.017860025E-1
2.614081913E0,-2.469239980E-1,-4.298000131E-3,9.777300060E-2
2.619062822E0,-2.581279874E-1,-6.929999799E-4,9.615900367E-2
2.624043670E0,-2.692629993E-1,2.637000056E-3,1.001029983E-1
2.629024591E0,-2.731899917E-1,-1.014799997E-2,9.629900008E-2
2.634005281E0,-2.743529975E-1,-2.561200038E-2,8.444499969E-2
2.638986125E0,-2.722820044E-1,-3.868500143E-2,6.768400222E-2
2.643967048E0,-2.665399909E-1,-4.799500108E-2,5.127400160E-2
2.648947971E0,-2.615619898E-1,-5.186700076E-2,3.859300166E-2
2.653928665E0,-2.586669922E-1,-5.547599867E-2,2.895900048E-2
2.658909586E0,-2.595410049E-1,-6.008600071E-2,1.908100024E-2
2.663890419E0,-2.636249959E-1,-6.371200085E-2,8.178000338E-3
2.668871112E0,-2.716169953E-1,-6.495200098E-2,-3.288999898E-3
2.673852033E0,-2.831180096E-1,-6.639000028E-2,-1.431499980E-2
2.678832961E0,-2.971709967E-1,-6.805200130E-2,-2.549800090E-2
2.683813809E0,-3.122439981E-1,-6.970100105E-2,-3.508299962E-2
2.688794730E0,-3.276869953E-1,-7.069999725E-2,-4.230299965E-2
2.693775425E0,-3.426589966E-1,-7.009500265E-2,-4.686700180E-2
2.698756346E0,-3.589780033E-1,-6.820700318E-2,-4.917699844E-2
2.703737269E0,-3.768210113E-1,-6.765399873E-2,-4.885499924E-2
2.708718117E0,-3.943510056E-1,-7.027599961E-2,-4.610700160E-2
2.713698809E0,-4.099709988E-1,-7.588399947E-2,-3.860900179E-2
2.718679720E0,-4.245750010E-1,-8.260600269E-2,-2.603499964E-2
2.723660568E0,-4.358760118E-1,-9.226100147E-2,-1.080400031E-2
2.728641490E0,-4.423609972E-1,-1.053489968E-1,7.189000025E-3
2.733622404E0,-4.443570077E-1,-1.206070036E-1,2.739500068E-2
2.738603098E0,-4.430820048E-1,-1.361330003E-1,4.815600067E-2
2.743584019E0,-4.377860129E-1,-1.518110037E-1,6.808499992E-2
2.748564946E0,-4.306100011E-1,-1.685660034E-1,8.651900291E-2
2.753545794E0,-4.207839966E-1,-1.865669936E-1,1.036269963E-1
2.758526487E0,-4.078139961E-1,-2.047999948E-1,1.191660017E-1
2.763507394E0,-3.925220072E-1,-2.214280069E-1,1.313419938E-1
2.768488317E0,-3.755640090E-1,-2.420089990E-1,1.394219995E-1
2.773469165E0,-3.553580046E-1,-2.642849982E-1,1.392460018E-1
2.778449857E0,-3.388740122E-1,-2.713780105E-1,1.447239965E-1
2.783430778E0,-3.214739859E-1,-2.754569948E-1,1.572149992E-1
2.788411701E0,-3.021250069E-1,-2.790389955E-1,1.736560017E-1
2.793392555E0,-2.786020041E-1,-2.806920111E-1,1.907670051E-1
2.798373476E0,-2.454829961E-1,-2.797800004E-1,2.051579952E-1
2.803354170E0,-2.272250056E-1,-2.858810127E-1,2.062650025E-1
2.808335082E0,-2.162570059E-1,-2.919760048E-1,1.968069971E-1
2.813315930E0,-2.014800012E-1,-2.873390019E-1,1.859200001E-1
2.818296851E0,-1.752929986E-1,-2.692640126E-1,1.802760065E-1
2.823277774E0,-1.406179965E-1,-2.423540056E-1,1.788250059E-1
2.828258469E0,-1.073220000E-1,-2.146320045E-1,1.795790046E-1
2.833239390E0,-8.151700348E-2,-1.888169944E-1,1.811400056E-1
2.838220252E0,-5.889299884E-2,-1.642690003E-1,1.836660057E-1
2.843201173E0,-3.415400162E-2,-1.402900070E-1,1.867090017E-1
2.848181867E0,-5.231999792E-3,-1.181700006E-1,1.902280003E-1
2.853162789E0,2.837499976E-2,-9.747300297E-2,1.920219958E-1
2.858143712E0,6.509300321E-2,-7.772299647E-2,1.914779991E-1
2.863124565E0,1.021279991E-1,-5.828300118E-2,1.868280023E-1
2.868105486E0,1.380150020E-1,-3.922099993E-2,1.783850044E-1
2.873086180E0,1.715109944E-1,-1.937299967E-2,1.676069945E-1
2.878067106E0,2.025869936E-1,3.340000112E-4,1.524730027E-1
2.883047954E0,2.320439965E-1,1.922900043E-2,1.336620003E-1
2.888028876E0,2.597590089E-1,3.747399896E-2,1.127389967E-1
2.893009569E0,2.844850123E-1,5.507000163E-2,9.038300067E-2
2.897990490E0,3.088000119E-1,7.297799736E-2,6.847599894E-2
2.902971413E0,3.325299919E-1,9.228499979E-2,4.679999873E-2
2.907952247E0,3.543849885E-1,1.139219999E-1,2.594700083E-2
2.912932940E0,3.727650046E-1,1.367239952E-1,5.690000020E-3
2.917913861E0,3.885529935E-1,1.611579955E-1,-1.421700045E-2
2.922894789E0,4.011189938E-1,1.864500046E-1,-3.269800171E-2
2.927875637E0,4.116210043E-1,2.116020024E-1,-5.163300037E-2
2.932856329E0,4.198929965E-1,2.358080000E-1,-7.003699988E-2
2.937837250E0,4.237030149E-1,2.557480037E-1,-8.973900229E-2
2.942818098E0,4.188950062E-1,2.682519853E-1,-1.115029976E-1
2.947799020E0,4.038780034E-1,2.709130049E-1,-1.340859979E-1
2.952779938E0,4.047600031E-1,2.784689963E-1,-1.448729932E-1
2.957760632E0,4.159370065E-1,2.866829932E-1,-1.437350065E-1
2.962741553E0,4.238559902E-1,2.844449878E-1,-1.405259967E-1
2.967722391E0,4.184440076E-1,2.687369883E-1,-1.422369927E-1
2.972703312E0,4.047940075E-1,2.427619994E-1,-1.484570056E-1
2.977684007E0,3.932360113E-1,2.166189998E-1,-1.546469927E-1
2.982664923E0,3.883300126E-1,1.931509972E-1,-1.609389931E-1
2.987645771E0,3.835749924E-1,1.701630056E-1,-1.684630066E-1
2.992626692E0,3.731960058E-1,1.452600062E-1,-1.779299974E-1
2.997607615E0,3.574219942E-1,1.201660037E-1,-1.888229996E-1
3.002588309E0,3.377160132E-1,9.804800153E-2,-1.990060061E-1
3.007569154E0,3.157590032E-1,7.990600169E-2,-2.073439956E-1
3.012550068E0,2.923820019E-1,6.347800046E-2,-2.124190032E-1
3.017530991E0,2.668499947E-1,4.867599905E-2,-2.144989967E-1
3.022511685E0,2.388910055E-1,3.453499824E-2,-2.133540064E-1
3.027492615E0,2.111600041E-1,2.264799923E-2,-2.068829983E-1
3.032473463E0,1.835480034E-1,1.326599997E-2,-1.953860074E-1
3.037454384E0,1.544999927E-1,5.824999884E-3,-1.800590008E-1
3.042435094E0,1.231520027E-1,7.650000043E-4,-1.611579955E-1
3.047416015E0,8.900900185E-2,-2.579000080E-3,-1.388860047E-1
3.052396863E0,5.294699967E-2,-5.894000176E-3,-1.117469966E-1
3.057377803E0,1.669199951E-2,-1.084499992E-2,-8.071500063E-2
3.062358726E0,-1.722799987E-2,-1.499699987E-2,-4.573699832E-2
3.067339420E0,-4.985500127E-2,-1.857299916E-2,-7.794999983E-3
3.072320342E0,-8.131899685E-2,-2.149900049E-2,3.309100121E-2
3.077301190E0,-1.121729985E-1,-2.275300026E-2,7.710199803E-2
3.082282111E0,-1.423469931E-1,-2.222499996E-2,1.214409992E-1
3.087262805E0,-1.712740064E-1,-1.982400008E-2,1.641270071E-1
3.092243726E0,-1.974170059E-1,-1.598599926E-2,2.031269968E-1
3.097224574E0,-2.188419998E-1,-1.042599976E-2,2.348390073E-1
3.102205509E0,-2.350880057E-1,-3.488000017E-3,2.568239868E-1
3.107186433E0,-2.453410029E-1,3.720999928E-3,2.694959939E-1
3.112167127E0,-2.486899942E-1,9.743999690E-3,2.754839957E-1
3.117148043E0,-2.431969941E-1,1.411600038E-2,2.768259943E-1
3.122128891E0,-2.308219969E-1,1.850700006E-2,2.744520009E-1
3.127109812E0,-2.135799974E-1,2.093500085E-2,2.672539949E-1
3.132090721E0,-1.918040067E-1,2.070599981E-2,2.581759989E-1
3.137071416E0,-1.642969996E-1,1.854399964E-2,2.481040061E-1
3.142052260E0,-1.322039962E-1,1.547299977E-2,2.380670011E-1
3.147033193E0,-9.682399780E-2,1.205900032E-2,2.281859964E-1
3.152013887E0,-6.079600006E-2,7.604999933E-3,2.201540023E-1
3.156994808E0,-2.482300065E-2,1.933000050E-3,2.137279958E-1
3.161975726E0,1.008499973E-2,-3.814999945E-3,2.080760002E-1
3.166956649E0,4.484200105E-2,-1.033100020E-2,2.027889937E-1
3.171937498E0,7.960700244E-2,-1.656400040E-2,1.965799928E-1
3.176918185E0,1.101659983E-1,-2.378600091E-2,1.886119992E-1
3.181899106E0,1.357609928E-1,-3.064800054E-2,1.791090071E-1
3.186880029E0,1.595579982E-1,-3.664899990E-2,1.683789939E-1
3.191860891E0,1.838950068E-1,-4.291800037E-2,1.548780054E-1
3.196841812E0,2.094919980E-1,-4.818800092E-2,1.374370009E-1
3.201822507E0,2.347590029E-1,-5.080899969E-2,1.146740019E-1
3.206803438E0,2.581009865E-1,-5.060600117E-2,8.739800006E-2
3.211784286E0,2.788810134E-1,-5.076399818E-2,5.504199862E-2
3.216765207E0,2.977389991E-1,-5.063499883E-2,1.875099912E-2
3.221745901E0,3.155719936E-1,-5.168100074E-2,-2.068799920E-2
3.226726822E0,3.329670131E-1,-5.290099978E-2,-6.168900058E-2
3.231707746E0,3.501380086E-1,-5.540899932E-2,-1.030450016E-1
3.236688594E0,3.655990064E-1,-5.882000178E-2,-1.418759972E-1
3.241669515E0,3.799479902E-1,-6.199499965E-2,-1.765799969E-1
3.246650209E0,3.915539980E-1,-6.466399878E-2,-2.033219934E-1
3.251631134E0,3.983480036E-1,-6.660699844E-2,-2.206290066E-1
3.256612057E0,3.979740143E-1,-6.860800087E-2,-2.281540036E-1
3.261592980E0,3.910999894E-1,-6.854999810E-2,-2.272790074E-1
3.266573820E0,3.772999942E-1,-6.735300273E-2,-2.204490006E-1
3.271554741E0,3.591090143E-1,-6.518299878E-2,-2.092400044E-1
3.276535430E0,3.375329971E-1,-6.153199822E-2,-1.944620013E-1
3.281516274E0,3.121010065E-1,-5.580100045E-2,-1.792560071E-1
3.286497197E0,2.805809975E-1,-4.828000069E-2,-1.621119976E-1
3.291477873E0,2.440019995E-1,-3.913500160E-2,-1.432240009E-1
3.296458794E0,2.038200051E-1,-2.907299995E-2,-1.230710000E-1
3.301439642E0,1.619710028E-1,-1.961899921E-2,-1.033729985E-1
3.306420558E0,1.192340031E-1,-1.090699993E-2,-8.697599918E-2
3.311401252E0,7.725399733E-2,-3.361999989E-3,-7.532600313E-2
3.316382173E0,3.920200095E-2,2.609000076E-3,-6.747599691E-2
3.321363021E0,5.950999912E-3,7.895999588E-3,-6.176999956E-2
3.326343943E0,-2.205299959E-2,1.270100009E-2,-5.797100067E-2
3.331324866E0,-4.586200044E-2,1.603499986E-2,-5.589000136E-2
3.336305545E0,-6.663300097E-2,1.748899929E-2,-5.435200036E-2
3.341286697E0,-8.542100340E-2,1.807799935E-2,-5.133499950E-2
3.346267377E0,-1.031330004E-1,1.688800007E-2,-4.547299817E-2
3.351248221E0,-1.184509993E-1,1.280799974E-2,-3.822999820E-2
3.356228930E0,-1.319819987E-1,6.415000185E-3,-2.892399952E-2
3.361209851E0,-1.431259960E-1,-7.409999962E-4,-1.694599912E-2
3.366190699E0,-1.517869979E-1,-8.701000363E-3,-3.085999982E-3
3.371171625E0,-1.578209996E-1,-1.724000089E-2,1.029899996E-2
3.376152625E0,-1.616909951E-1,-2.675200067E-2,2.324300073E-2
3.381133473E0,-1.628080010E-1,-3.640599921E-2,3.570500016E-2
3.386114394E0,-1.619129926E-1,-4.470299929E-2,4.682400078E-2
3.391095012E0,-1.606869996E-1,-5.280900002E-2,5.827200040E-2
3.396075933E0,-1.599610001E-1,-6.120900065E-2,6.998500228E-2
3.401056632E0,-1.567630023E-1,-6.978099793E-2,8.248399943E-2
3.406037553E0,-1.505019963E-1,-7.778599858E-2,9.363199770E-2
3.411018476E0,-1.430020034E-1,-8.514899760E-2,1.022949964E-1
3.415999309E0,-1.352789998E-1,-9.161499888E-2,1.082039997E-1
3.420980002E0,-1.294839978E-1,-9.729799628E-2,1.110799983E-1
3.425960923E0,-1.261239946E-1,-1.035680026E-1,1.111460030E-1
3.430941781E0,-1.233090013E-1,-1.116480008E-1,1.091559976E-1
3.435922702E0,-1.194610000E-1,-1.216880009E-1,1.029660031E-1
3.440903396E0,-1.135729998E-1,-1.349550039E-1,9.086500108E-2
3.445884302E0,-1.083509997E-1,-1.506769955E-1,7.160600275E-2
3.450865151E0,-1.047490016E-1,-1.680430025E-1,4.496299848E-2
3.455846087E0,-1.030810028E-1,-1.872339994E-1,1.515599992E-2
3.460827010E0,-1.020660028E-1,-2.064819932E-1,-1.500799973E-2
3.465807704E0,-1.034869999E-1,-2.244980037E-1,-4.635500163E-2
3.470788625E0,-1.078820005E-1,-2.421669960E-1,-7.826499641E-2
3.475769548E0,-1.147169992E-1,-2.593660057E-1,-1.103679985E-1
3.480750390E0,-1.217160001E-1,-2.747220099E-1,-1.419879943E-1
3.485731312E0,-1.288480014E-1,-2.882190049E-1,-1.713069975E-1
3.490712006E0,-1.352560073E-1,-2.995919883E-1,-1.980810016E-1
3.495692932E0,-1.410859972E-1,-3.091369867E-1,-2.225019932E-1
3.500673780E0,-1.445990056E-1,-3.146030009E-1,-2.421659976E-1
3.505654701E0,-1.426859945E-1,-3.133569956E-1,-2.566199899E-1
3.510635624E0,-1.368139982E-1,-3.053370118E-1,-2.663320005E-1
3.515616319E0,-1.290519983E-1,-2.922819853E-1,-2.695690095E-1
3.520597163E0,-1.216920018E-1,-2.740469873E-1,-2.643690109E-1
3.525578168E0,-1.160600036E-1,-2.507140040E-1,-2.501859963E-1
3.530558785E0,-1.131509990E-1,-2.217669934E-1,-2.288150042E-1
3.535539706E0,-1.103769988E-1,-1.889699996E-1,-2.013749927E-1
3.540520624E0,-1.083490029E-1,-1.527709961E-1,-1.727840006E-1
3.545501547E0,-1.073649973E-1,-1.137889996E-1,-1.457609981E-1
3.550482396E0,-1.100900024E-1,-7.162299752E-2,-1.210779995E-1
3.555463117E0,-1.171849966E-1,-2.729099989E-2,-9.526599944E-2
3.560444038E0,-1.276499927E-1,1.749500073E-2,-6.408199668E-2
3.565424886E0,-1.399160028E-1,6.105000153E-2,-3.070699982E-2
3.570405807E0,-1.542620063E-1,1.022149995E-1,-1.130000019E-4
3.575386715E0,-1.698890030E-1,1.412750036E-1,2.289300039E-2
3.580367410E0,-1.870509982E-1,1.792279929E-1,3.536099941E-2
3.585348331E0,-2.019940019E-1,2.160380036E-1,3.780199960E-2
3.590329160E0,-2.127999961E-1,2.525730133E-1,3.349699825E-2
3.595310081E0,-2.164639980E-1,2.869729996E-1,2.488199994E-2
3.600290775E0,-2.120530009E-1,3.171739876E-1,1.626699977E-2
3.605271710E0,-1.993950009E-1,3.416540027E-1,7.650000043E-3
3.610252559E0,-1.793709993E-1,3.597700000E-1,-7.099999930E-4
3.615233480E0,-1.526899934E-1,3.734970093E-1,-6.506000180E-3
3.620214403E0,-1.221520007E-1,3.840309978E-1,-9.417999536E-3
3.625195097E0,-8.878400177E-2,3.914360106E-1,-1.040800009E-2
3.630175927E0,-5.334100127E-2,3.946160078E-1,-1.119900029E-2
3.635156850E0,-1.834799908E-2,3.954350054E-1,-1.151300035E-2
3.640137773E0,1.513700001E-2,3.941749930E-1,-1.182799973E-2
3.645118701E0,4.747899994E-2,3.917630017E-1,-1.073899958E-2
3.650099395E0,7.635500282E-2,3.864490092E-1,-1.037899964E-2
3.655080239E0,9.709200263E-2,3.752390146E-1,-1.155900024E-2
3.660061268E0,1.107460037E-1,3.572050035E-1,-1.460999995E-2
3.665041885E0,1.218599975E-1,3.358190060E-1,-1.922200061E-2
3.670022807E0,1.322840005E-1,3.118140101E-1,-2.667799965E-2
3.675003716E0,1.418360025E-1,2.859709859E-1,-3.934700042E-2
3.679984639E0,1.493490040E-1,2.576349974E-1,-5.612200126E-2
3.684965487E0,1.541479975E-1,2.276870012E-1,-7.369100302E-2
3.689946393E0,1.572840065E-1,1.968349963E-1,-8.928000182E-2
3.694927087E0,1.610690057E-1,1.650010049E-1,-1.007919982E-1
3.699908008E0,1.670349985E-1,1.316819936E-1,-1.087260023E-1
3.704888857E0,1.747439951E-1,9.717299789E-2,-1.164769977E-1
3.709869778E0,1.837839931E-1,6.228800118E-2,-1.282970011E-1
3.714850472E0,1.944639981E-1,2.869799919E-2,-1.405609995E-1
3.719831398E0,2.078599930E-1,-2.706999891E-3,-1.469260007E-1
3.724812321E0,2.243240029E-1,-3.204499930E-2,-1.430779994E-1
3.729793169E0,2.433689982E-1,-5.896199867E-2,-1.265929937E-1
3.734773867E0,2.615399957E-1,-8.260399848E-2,-9.814599901E-2
3.739754788E0,2.769719958E-1,-1.027949974E-1,-6.051199883E-2
3.744735706E0,2.881680131E-1,-1.185000017E-1,-1.603999920E-2
3.749716554E0,2.931680083E-1,-1.270419955E-1,2.930499986E-2
3.754697475E0,2.914200127E-1,-1.265970021E-1,7.266899943E-2
3.759678174E0,2.828719914E-1,-1.180050001E-1,1.128500029E-1
3.764659095E0,2.676050067E-1,-1.044280007E-1,1.476770043E-1
3.769639944E0,2.490079999E-1,-8.788300306E-2,1.747719944E-1
3.774620914E0,2.297240049E-1,-6.954000145E-2,1.949159950E-1
3.779601762E0,2.077849954E-1,-5.026900023E-2,2.104569972E-1
3.784582439E0,1.881909966E-1,-3.210699931E-2,2.203360051E-1
3.789563360E0,1.705369949E-1,-1.508800033E-2,2.245990038E-1
3.794544208E0,1.530279964E-1,2.614000114E-3,2.249460071E-1
3.799525149E0,1.344259977E-1,2.207400091E-2,2.212650031E-1
3.804505844E0,1.152009964E-1,4.243199900E-2,2.146800011E-1
3.809486765E0,9.599199891E-2,6.376100332E-2,2.048799992E-1
3.814467631E0,7.487799972E-2,8.325099945E-2,1.910379976E-1
3.819448323E0,5.141099915E-2,1.011409983E-1,1.742819995E-1
3.824429244E0,2.867900021E-2,1.162839979E-1,1.565999985E-1
3.829410153E0,8.896999992E-3,1.259710044E-1,1.402200013E-1
3.834391002E0,-6.417000201E-3,1.291240007E-1,1.239230037E-1
3.839371923E0,-1.598699950E-2,1.280709952E-1,1.082680002E-1
3.844352842E0,-2.198299952E-2,1.258240044E-1,9.140300006E-2
3.849333536E0,-2.856799960E-2,1.224310026E-1,7.350499928E-2
3.854314457E0,-3.734700009E-2,1.193320006E-1,5.465399846E-2
3.859295313E0,-4.781800136E-2,1.170450002E-1,3.740299866E-2
3.864276235E0,-5.970599875E-2,1.142579988E-1,2.162200026E-2
3.869257158E0,-7.247400284E-2,1.110069975E-1,6.060999818E-3
3.874237820E0,-8.555900306E-2,1.085330024E-1,-1.009000000E-2
3.879218741E0,-9.903000295E-2,1.062989980E-1,-2.671499923E-2
3.884199589E0,-1.127419993E-1,1.034270003E-1,-4.410099983E-2
3.889180495E0,-1.265220046E-1,9.921400249E-2,-6.222299859E-2
3.894161190E0,-1.397159994E-1,9.450200200E-2,-7.882799953E-2
3.899142111E0,-1.503999978E-1,8.913700283E-2,-9.204799682E-2
3.904122959E0,-1.583710015E-1,8.203600347E-2,-1.017939970E-1
3.909103880E0,-1.625140011E-1,7.303400338E-2,-1.085700020E-1
3.914084803E0,-1.627639979E-1,6.238599867E-2,-1.114360020E-1
3.919065512E0,-1.597069949E-1,5.118500069E-2,-1.098349988E-1
3.924046664E0,-1.544539928E-1,4.005499929E-2,-1.037010029E-1
3.929027359E0,-1.460369974E-1,2.936200052E-2,-9.336800128E-2
3.934008217E0,-1.382810026E-1,1.863699965E-2,-7.992900163E-2
3.938988911E0,-1.335449964E-1,7.950999774E-3,-6.305000186E-2
3.943969832E0,-1.290549934E-1,-3.789999988E-3,-4.482100159E-2
3.948950675E0,-1.227800027E-1,-1.637599990E-2,-2.359900065E-2
3.953931596E0,-1.133560017E-1,-2.848700061E-2,-2.024000045E-3
3.958912519E0,-1.035809964E-1,-3.951700032E-2,2.059799992E-2
3.963893438E0,-9.429299831E-2,-4.853200167E-2,4.214499891E-2
3.968874132E0,-8.360700309E-2,-5.427600071E-2,6.187099963E-2
3.973854976E0,-7.448200136E-2,-5.593400076E-2,7.867400348E-2
3.978835899E0,-6.846000254E-2,-5.253599957E-2,9.052100033E-2
3.983816822E0,-6.708999723E-2,-4.362500086E-2,9.648600221E-2
3.988797516E0,-7.199700177E-2,-3.292100132E-2,9.602300078E-2
3.993778424E0,-8.185700327E-2,-2.122900076E-2,9.143900126E-2
3.998759272E0,-9.338700026E-2,-1.008800045E-2,8.189799637E-2
4.003740188E0,-1.042689979E-1,-6.009999779E-4,6.979600340E-2
4.008720882E0,-1.145080030E-1,7.116000168E-3,5.411300063E-2
4.013701803E0,-1.216130033E-1,1.456699986E-2,3.575599939E-2
4.018682665E0,-1.267880052E-1,1.976200007E-2,1.583600044E-2
4.023663586E0,-1.329050064E-1,2.270499989E-2,-3.100000089E-3
4.028644510E0,-1.381829977E-1,2.442100085E-2,-2.029299922E-2
4.033625433E0,-1.418939978E-1,2.343199961E-2,-3.494099900E-2
4.038606050E0,-1.462679952E-1,2.078899927E-2,-4.640400037E-2
4.043586971E0,-1.497029960E-1,1.439599972E-2,-5.519099906E-2
4.048567889E0,-1.488759965E-1,2.451000037E-3,-6.164700165E-2
4.053548584E0,-1.438080072E-1,-1.182799973E-2,-6.553400308E-2
4.058529505E0,-1.379040033E-1,-2.548800036E-2,-6.800500304E-2
4.063510443E0,-1.333709955E-1,-3.762900084E-2,-6.953600049E-2
4.068491366E0,-1.322350055E-1,-4.823499918E-2,-6.935500354E-2
4.073472214E0,-1.351580024E-1,-5.735899881E-2,-6.691200286E-2
4.078453140E0,-1.411969960E-1,-6.446599960E-2,-6.317000091E-2
4.083433834E0,-1.486469954E-1,-6.925799698E-2,-5.794199929E-2
4.088414679E0,-1.566500068E-1,-7.156000286E-2,-5.216399953E-2
4.093395606E0,-1.673939973E-1,-7.250600308E-2,-4.773199931E-2
4.098376529E0,-1.818629950E-1,-7.441300154E-2,-4.725199938E-2
4.103357223E0,-2.018660009E-1,-7.683300227E-2,-4.878300056E-2
4.108338159E0,-2.254649997E-1,-8.132199943E-2,-5.147600174E-2
4.113319007E0,-2.514970005E-1,-8.861599863E-2,-5.375799909E-2
4.118299928E0,-2.801110148E-1,-9.994199872E-2,-5.622199923E-2
4.123280623E0,-3.082369864E-1,-1.156430021E-1,-5.851300061E-2
4.128261544E0,-3.334819973E-1,-1.352269948E-1,-6.009000167E-2
4.133242467E0,-3.554669917E-1,-1.586840004E-1,-6.032999977E-2
4.138223334E0,-3.704360127E-1,-1.846619993E-1,-5.886299908E-2
4.143204255E0,-3.775610030E-1,-2.143850029E-1,-5.660299957E-2
4.148184949E0,-3.770030141E-1,-2.465260029E-1,-5.370999873E-2
4.153165871E0,-3.704909980E-1,-2.790699899E-1,-4.999100044E-2
4.158146719E0,-3.564080000E-1,-3.126400113E-1,-4.561100155E-2
4.163127625E0,-3.350540102E-1,-3.454329967E-1,-3.987200186E-2
4.168108319E0,-3.057760000E-1,-3.728800118E-1,-3.253600001E-2
4.173089471E0,-2.672210038E-1,-3.963069916E-1,-2.424100041E-2
4.178070083E0,-2.214390039E-1,-4.159420133E-1,-1.428500004E-2
4.183051004E0,-1.709579974E-1,-4.278829992E-1,-2.042999957E-3
4.188031928E0,-1.172920018E-1,-4.302220047E-1,1.190000027E-2
4.193012622E0,-6.523200125E-2,-4.206010103E-1,2.599200048E-2
4.197993543E0,-2.211299911E-2,-3.980270028E-1,4.186299816E-2
4.202974391E0,9.251000360E-3,-3.661780059E-1,5.826200172E-2
4.207955316E0,3.070300072E-2,-3.283120096E-1,7.623399794E-2
4.212936011E0,4.550400004E-2,-2.873579860E-1,9.412299842E-2
4.217916932E0,5.395999923E-2,-2.451460063E-1,1.122639999E-1
4.222897870E0,5.759700015E-2,-2.026920021E-1,1.294589937E-1
4.227878718E0,5.705900118E-2,-1.617069989E-1,1.449390054E-1
4.232859639E0,5.234999955E-2,-1.222150028E-1,1.585360020E-1
4.237840338E0,4.634999856E-2,-8.519399911E-2,1.731169969E-1
4.242821259E0,4.071899876E-2,-5.091699958E-2,1.901440024E-1
4.247802108E0,3.755500168E-2,-1.921699941E-2,2.101510018E-1
4.252783043E0,3.962099925E-2,7.608999964E-3,2.288369983E-1
4.257763737E0,4.631699994E-2,2.817800082E-2,2.425740063E-1
4.262744658E0,5.799400061E-2,4.252599925E-2,2.505620122E-1
4.267725576E0,7.978600264E-2,5.221699923E-2,2.538239956E-1
4.272706424E0,1.109479964E-1,5.875600129E-2,2.504329979E-1
4.277687345E0,1.454519928E-1,6.500899792E-2,2.392279953E-1
4.282668045E0,1.819310039E-1,7.275699824E-2,2.197300047E-1
4.287648966E0,2.177529931E-1,8.265800029E-2,1.951929927E-1
4.292629889E0,2.518379986E-1,9.498500079E-2,1.679009944E-1
4.297610727E0,2.831299901E-1,1.088040024E-1,1.413439959E-1
4.302591648E0,3.135890067E-1,1.210720018E-1,1.164589971E-1
4.307572571E0,3.433179855E-1,1.320369989E-1,9.476300329E-2
4.312553266E0,3.695920110E-1,1.422760040E-1,7.549100369E-2
4.317534110E0,3.895910084E-1,1.525750011E-1,5.809399858E-2
4.322515033E0,4.012469947E-1,1.640699953E-1,4.162300006E-2
4.327495956E0,4.023999870E-1,1.760119945E-1,2.531800047E-2
4.332476650E0,3.941290081E-1,1.856289953E-1,8.507000282E-3
4.337457571E0,3.780629933E-1,1.912789941E-1,-5.834999960E-3
4.342438405E0,3.538460135E-1,1.919050068E-1,-1.437299978E-2
4.347419327E0,3.264270127E-1,1.881919950E-1,-1.820199937E-2
4.352400021E0,2.996419966E-1,1.799860001E-1,-1.724299975E-2
4.357380942E0,2.739979923E-1,1.672919989E-1,-1.398599986E-2
4.362361865E0,2.487580031E-1,1.496669948E-1,-9.592000395E-3
4.367342694E0,2.248640060E-1,1.294379979E-1,-5.375000183E-3
4.372323615E0,2.036409974E-1,1.087210029E-1,4.229999904E-4
4.377304310E0,1.861519963E-1,8.940400183E-2,8.255000226E-3
4.382285231E0,1.728640050E-1,7.177799940E-2,1.656400040E-2
4.387266079E0,1.631260067E-1,5.454900116E-2,2.078500018E-2
4.392247000E0,1.569969952E-1,3.878699988E-2,1.867100038E-2
4.397227922E0,1.537539959E-1,2.566600032E-2,1.033999957E-2
4.402208616E0,1.544149965E-1,1.670200005E-2,-7.929999847E-4
4.407189537E0,1.584549993E-1,1.419200003E-2,-1.321200002E-2
4.412170396E0,1.650069952E-1,1.722699963E-2,-2.493499964E-2
4.417151317E0,1.666740030E-1,2.003899962E-2,-3.533500060E-2
4.422132240E0,1.655170023E-1,1.967000030E-2,-4.014300182E-2
4.427112934E0,1.685499996E-1,1.822599955E-2,-3.594499826E-2
4.432093855E0,1.744890064E-1,1.873099990E-2,-2.332900092E-2
4.437074703E0,1.784089953E-1,2.124099992E-2,-5.446999799E-3
4.442055624E0,1.773300022E-1,2.561200038E-2,1.466699969E-2
4.447036548E0,1.712329984E-1,3.262000158E-2,3.529300168E-2
4.452017165E0,1.602270007E-1,4.320700094E-2,5.498500168E-2
4.456998086E0,1.428660005E-1,5.838000029E-2,7.488899678E-2
4.461979009E0,1.178039983E-1,7.434900105E-2,9.336599708E-2
4.466959932E0,8.811400086E-2,8.846499771E-2,1.080200002E-1
4.471940641E0,5.657200143E-2,1.013540030E-1,1.201269999E-1
4.476921562E0,2.623200044E-2,1.109630018E-1,1.282150000E-1
4.481902410E0,-2.509000013E-3,1.174999997E-1,1.323879957E-1
4.486883321E0,-2.645999938E-2,1.204959974E-1,1.297249943E-1
4.491864015E0,-4.185299948E-2,1.202749982E-1,1.176979989E-1
4.496844936E0,-4.969900101E-2,1.165859997E-1,9.556300193E-2
4.501825864E0,-5.233699828E-2,1.102510020E-1,6.617099792E-2
4.506806713E0,-5.004199967E-2,1.025659963E-1,3.288900107E-2
4.511787634E0,-4.245999828E-2,9.648200125E-2,-6.300000241E-4
4.516768552E0,-2.962600067E-2,9.091199934E-2,-3.332100064E-2
4.521749246E0,-1.418800000E-2,8.447699994E-2,-6.572999805E-2
4.526730090E0,2.120000077E-3,7.683999836E-2,-9.836100042E-2
4.531711013E0,1.816800050E-2,6.657899916E-2,-1.298930049E-1
4.536691708E0,3.381500021E-2,5.537100136E-2,-1.564590037E-1
4.541672629E0,4.843999818E-2,4.276400059E-2,-1.766899973E-1
4.546653783E0,6.128900126E-2,2.865600027E-2,-1.906410009E-1
4.551634477E0,7.003600150E-2,1.449800003E-2,-1.968210042E-1
4.556615398E0,7.575699687E-2,7.450000267E-4,-1.948069930E-1
4.561596251E0,7.861000299E-2,-1.191699971E-2,-1.861079931E-1
4.566577172E0,7.955200225E-2,-1.827999949E-2,-1.729560047E-1
4.571557867E0,7.583600283E-2,-1.704999991E-2,-1.585399956E-1
4.576538817E0,6.424400210E-2,-1.261899993E-2,-1.447079927E-1
4.581519434E0,4.673400149E-2,-1.073300000E-2,-1.300680041E-1
4.586500355E0,2.723599970E-2,-1.120399963E-2,-1.149080023E-1
4.591481278E0,1.138199959E-2,-1.145299990E-2,-9.824699908E-2
4.596462126E0,-6.619999767E-4,-1.222699974E-2,-8.000200242E-2
4.601443047E0,-9.658999741E-3,-1.393199991E-2,-6.259699911E-2
4.606423966E0,-1.692100056E-2,-1.823299937E-2,-4.905600101E-2
4.611404660E0,-2.151699923E-2,-2.326799929E-2,-3.688199818E-2
4.616385581E0,-2.417300083E-2,-2.991499938E-2,-2.471699938E-2
4.621366429E0,-2.380800061E-2,-3.912699968E-2,-1.415500045E-2
4.626347350E0,-2.204700001E-2,-4.854099825E-2,-4.428999964E-3
4.631328273E0,-1.846699975E-2,-5.824099854E-2,3.734000027E-3
4.636309202E0,-1.400799956E-2,-6.868299842E-2,1.052100025E-2
4.641290126E0,-9.545999579E-3,-7.914400101E-2,1.735500060E-2
4.646270743E0,-4.635999911E-3,-9.057699889E-2,2.454599924E-2
4.651251741E0,1.972999889E-3,-1.026600003E-1,3.081000037E-2
4.656232358E0,8.472999558E-3,-1.146890000E-1,3.588499874E-2
4.661213283E0,1.360999979E-2,-1.267389953E-1,3.885899857E-2
4.666194206E0,1.810299978E-2,-1.388040036E-1,4.002499953E-2
4.671175130E0,2.297399938E-2,-1.499249935E-1,3.834100068E-2
4.676156053E0,2.763600089E-2,-1.597799957E-1,3.475899994E-2
4.681136901E0,3.130200133E-2,-1.677909940E-1,3.004099987E-2
4.686117822E0,3.378900141E-2,-1.747110039E-1,2.250099927E-2
4.691098745E0,3.475600109E-2,-1.800550073E-1,1.225499995E-2
4.696079362E0,3.393400088E-2,-1.842020005E-1,-8.580000140E-4
4.701060283E0,3.238200024E-2,-1.875199974E-1,-1.722200029E-2
4.706040969E0,2.973599918E-2,-1.904940009E-1,-3.491000086E-2
4.711021890E0,2.678900026E-2,-1.920419931E-1,-5.384900048E-2
4.716002738E0,2.373000048E-2,-1.928990036E-1,-7.161799818E-2
4.720983654E0,2.026000060E-2,-1.938399971E-1,-8.710999787E-2
4.725964577E0,1.588900015E-2,-1.947190017E-1,-1.014190018E-1
4.730945272E0,1.073100045E-2,-1.952950060E-1,-1.140799969E-1
4.735926116E0,4.691000096E-3,-1.962680072E-1,-1.258679926E-1
4.740907039E0,-2.887000097E-3,-2.010039985E-1,-1.373409927E-1
4.745887962E0,-1.233300008E-2,-2.079209983E-1,-1.494569927E-1
4.750868918E0,-2.321100049E-2,-2.162639946E-1,-1.613840014E-1
4.755849612E0,-3.440200165E-2,-2.237669975E-1,-1.730969995E-1
4.760830533E0,-4.475900158E-2,-2.314949930E-1,-1.856590062E-1
4.765811363E0,-5.381200090E-2,-2.389550060E-1,-1.992840022E-1
4.770792284E0,-6.335200369E-2,-2.453680038E-1,-2.128659934E-1
4.775773222E0,-7.162299752E-2,-2.505629957E-1,-2.246890068E-1
4.780753916E0,-7.766500115E-2,-2.533780038E-1,-2.340199947E-1
4.785734837E0,-8.249899745E-2,-2.538419962E-1,-2.391860038E-1
4.790715694E0,-8.713100106E-2,-2.527450025E-1,-2.429360002E-1
4.795696615E0,-9.192299843E-2,-2.489950061E-1,-2.453610003E-1
4.800677310E0,-9.607599676E-2,-2.413980067E-1,-2.464070022E-1
4.805658231E0,-9.741800278E-2,-2.302120030E-1,-2.449460030E-1
4.810639079E0,-9.478999674E-2,-2.143680006E-1,-2.394990027E-1
4.815620000E0,-8.860100061E-2,-1.927549988E-1,-2.288209945E-1
4.820600927E0,-8.013799787E-2,-1.665260047E-1,-2.129999995E-1
4.825581850E0,-7.030300051E-2,-1.355199963E-1,-1.915329993E-1
4.830562545E0,-5.847699940E-2,-1.006259993E-1,-1.659319997E-1
4.835543399E0,-4.550499842E-2,-6.198599935E-2,-1.367029995E-1
4.840524322E0,-3.091300093E-2,-2.124200016E-2,-1.054679975E-1
4.845505245E0,-1.553700026E-2,2.061099932E-2,-7.166899741E-2
4.850485939E0,-7.459999761E-4,6.207399815E-2,-3.773500025E-2
4.855466860E0,1.249099988E-2,1.020750031E-1,-5.032999907E-3
4.860447763E0,2.288899943E-2,1.388020068E-1,2.502300031E-2
4.865428612E0,3.037800081E-2,1.724610031E-1,5.104700103E-2
4.870409304E0,3.496399894E-2,2.024530023E-1,7.161100209E-2
4.875390451E0,3.812300041E-2,2.295099944E-1,8.691299707E-2
4.880371145E0,3.988299891E-2,2.553069890E-1,9.666399658E-2
4.885351994E0,4.167500138E-2,2.800300121E-1,1.014650017E-1
4.890332917E0,4.234199971E-2,3.033190072E-1,1.017299965E-1
4.895313840E0,4.338699952E-2,3.252069950E-1,9.913299978E-2
4.900294549E0,4.594599828E-2,3.462300003E-1,9.488499910E-2
4.905275470E0,5.048299953E-2,3.640690148E-1,8.867699653E-2
4.910256338E0,5.519900098E-2,3.789150119E-1,8.032699674E-2
4.915237259E0,5.973700061E-2,3.906640112E-1,7.007099688E-2
4.920217953E0,6.394299865E-2,3.987860084E-1,5.803599954E-2
4.925198874E0,6.737100333E-2,4.026019871E-1,4.349200055E-2
4.930179723E0,6.985799968E-2,4.021440148E-1,2.962199971E-2
4.935160644E0,7.184699923E-2,4.001170099E-1,1.603600010E-2
4.940141581E0,7.503499836E-2,3.970269859E-1,3.890000051E-3
4.945122275E0,7.918199897E-2,3.927670121E-1,-7.102000061E-3
4.950103196E0,8.173199743E-2,3.858489990E-1,-1.685499959E-2
4.955084129E0,8.211400360E-2,3.739289939E-1,-2.650799975E-2
4.960064747E0,7.897000015E-2,3.568589985E-1,-3.582699969E-2
4.965045668E0,7.294499874E-2,3.348399997E-1,-4.417600110E-2
4.970026571E0,6.429299712E-2,3.091790080E-1,-5.149300024E-2
4.975007419E0,5.271099880E-2,2.792659998E-1,-5.773099884E-2
4.979988340E0,3.846599907E-2,2.463330030E-1,-6.291200221E-2
4.984969278E0,2.240899950E-2,2.107300013E-1,-6.558799744E-2
4.989950201E0,5.669000093E-3,1.735630035E-1,-6.562300026E-2
4.994930896E0,-1.053099986E-2,1.366160065E-1,-6.456500292E-2
4.999911740E0,-2.604700066E-2,1.002900004E-1,-6.339900196E-2
5.004892663E0,-4.037399963E-2,6.637799740E-2,-6.214800104E-2
5.009873342E0,-5.253800005E-2,3.656499833E-2,-5.846500024E-2
5.014854263E0,-6.067299843E-2,1.035400014E-2,-5.219899863E-2
5.019835186E0,-6.462900341E-2,-1.150800008E-2,-4.278000072E-2
5.024816101E0,-6.677000225E-2,-2.989199944E-2,-3.077699989E-2
5.029796949E0,-6.624899805E-2,-4.619599879E-2,-1.708699949E-2
5.034777641E0,-6.385300308E-2,-6.000500172E-2,-4.539999936E-4
5.039758562E0,-6.033999845E-2,-7.003100216E-2,1.993899979E-2
5.044739410E0,-5.555000156E-2,-7.645499706E-2,4.295799881E-2
5.049720331E0,-5.133600160E-2,-7.987000048E-2,6.686300039E-2
5.054701249E0,-4.764499888E-2,-7.985699922E-2,9.039299935E-2
5.059682173E0,-4.501099885E-2,-7.729399949E-2,1.127289981E-1
5.064662867E0,-4.366900027E-2,-7.096499950E-2,1.348109990E-1
5.069643788E0,-4.272500053E-2,-6.149600074E-2,1.570730060E-1
5.074624636E0,-4.235199839E-2,-4.855800048E-2,1.782030016E-1
5.079605571E0,-4.435199872E-2,-3.252499923E-2,1.965759993E-1
5.084586265E0,-4.754799977E-2,-1.554900035E-2,2.101880014E-1
5.089567187E0,-5.272300169E-2,1.286000013E-3,2.187799960E-1
5.094548096E0,-5.973700061E-2,1.724600047E-2,2.209289968E-1
5.099528944E0,-6.643199921E-2,3.148199990E-2,2.183060050E-1
5.104509865E0,-7.217100263E-2,4.619000107E-2,2.130800039E-1
5.109490554E0,-7.637900114E-2,6.070299819E-2,2.057060003E-1
5.114471475E0,-7.865999639E-2,7.365299761E-2,1.954659969E-1
5.119452323E0,-7.914499938E-2,8.509899676E-2,1.824859977E-1
5.124433231E0,-7.666099817E-2,9.470299631E-2,1.643760055E-1
5.129414154E0,-7.358600199E-2,1.032150015E-1,1.405670047E-1
5.134395077E0,-6.921099871E-2,1.104720011E-1,1.116229966E-1
5.139375766E0,-6.552100182E-2,1.169800013E-1,7.921099663E-2
5.144356687E0,-6.263200194E-2,1.221870035E-1,4.734300077E-2
5.149337535E0,-5.948999897E-2,1.266710013E-1,1.763599925E-2
5.154318223E0,-5.563699827E-2,1.299400032E-1,-9.641000070E-3
5.159299144E0,-5.185100064E-2,1.312779933E-1,-3.491099924E-2
5.164280067E0,-4.958900064E-2,1.303050071E-1,-5.908500031E-2
5.169260976E0,-4.861000180E-2,1.263339967E-1,-8.078700304E-2
5.174241899E0,-4.686899856E-2,1.214980036E-1,-1.000000015E-1
5.179222747E0,-4.502899945E-2,1.164790019E-1,-1.150510013E-1
5.184203424E0,-4.368399829E-2,1.099099964E-1,-1.274749935E-1
5.189184346E0,-4.318400100E-2,1.017180011E-1,-1.381800026E-1
5.194165194E0,-4.303799942E-2,9.210100025E-2,-1.467439979E-1
5.199146096E0,-4.151700065E-2,8.166199923E-2,-1.521269977E-1
5.204127019E0,-3.902399912E-2,6.992600113E-2,-1.543270051E-1
5.209107713E0,-3.568800166E-2,5.874999985E-2,-1.537239999E-1
5.214088571E0,-3.180500120E-2,4.693600163E-2,-1.517090052E-1
5.219069495E0,-2.742400020E-2,3.512199968E-2,-1.492040008E-1
5.224050418E0,-2.283300087E-2,2.350099944E-2,-1.446460038E-1
5.229031317E0,-1.667100005E-2,1.171300001E-2,-1.390839964E-1
5.234012011E0,-9.887999855E-3,-7.699999696E-5,-1.312510073E-1
5.238992932E0,-2.099999925E-3,-1.136200037E-2,-1.207059994E-1
5.243973780E0,5.532999989E-3,-2.268799953E-2,-1.053759977E-1
5.248954473E0,1.266200002E-2,-3.085600026E-2,-8.640699834E-2
5.253935394E0,1.772700064E-2,-3.700700030E-2,-6.612499803E-2
5.258916312E0,1.922599971E-2,-4.186400026E-2,-4.613199830E-2
5.263897235E0,1.697699912E-2,-4.574900120E-2,-2.879700065E-2
5.268878083E0,1.192099974E-2,-4.943199828E-2,-1.435500011E-2
5.273859000E0,5.195999984E-3,-5.320800096E-2,-1.077000052E-3
5.278839694E0,-2.098999918E-3,-5.801799893E-2,1.158700045E-2
5.283820616E0,-9.468999691E-3,-6.288500130E-2,2.216700092E-2
5.288801464E0,-1.727899909E-2,-6.824900210E-2,3.248099983E-2
5.293782385E0,-2.448499948E-2,-7.388100028E-2,4.015899822E-2
5.298763079E0,-3.222899884E-2,-8.036500216E-2,4.591700062E-2
5.303744000E0,-3.957400098E-2,-8.727599680E-2,4.975799844E-2
5.308724923E0,-4.704599828E-2,-9.369900078E-2,5.263999850E-2
5.313705790E0,-5.519500002E-2,-9.819900244E-2,5.468900129E-2
5.318686712E0,-6.394799799E-2,-1.005859971E-1,5.498800054E-2
5.323667669E0,-7.376000285E-2,-1.027500033E-1,5.369500071E-2
5.328648363E0,-8.416300267E-2,-1.046100035E-1,5.151100084E-2
5.333629284E0,-9.395399690E-2,-1.056500003E-1,4.861500114E-2
5.338610137E0,-1.030640006E-1,-1.052699983E-1,4.521200061E-2
5.343591058E0,-1.130969971E-1,-1.029860005E-1,4.089400172E-2
5.348571748E0,-1.250820011E-1,-9.994599968E-2,3.450300172E-2
5.353552669E0,-1.387549937E-1,-9.636499733E-2,2.734700032E-2
5.358533592E0,-1.533969939E-1,-9.279800206E-2,2.066400088E-2
5.363514445E0,-1.685589999E-1,-8.866699785E-2,1.512700040E-2
5.368495366E0,-1.843270063E-1,-8.389499784E-2,1.095199957E-2
5.373476289E0,-2.000689954E-1,-7.930999994E-2,7.675999776E-3
5.378456906E0,-2.151540071E-1,-7.449399680E-2,4.608999938E-3
5.383437828E0,-2.304140031E-1,-6.980899721E-2,2.857000101E-3
5.388418751E0,-2.460059971E-1,-6.465800107E-2,2.157999901E-3
5.393399674E0,-2.602669895E-1,-5.938800052E-2,9.599999757E-4
5.398380368E0,-2.742930055E-1,-5.587400123E-2,1.289999927E-4
5.403361289E0,-2.872399986E-1,-5.325400084E-2,1.029999985E-4
5.408342226E0,-2.974039912E-1,-5.237099901E-2,-4.400000034E-5
5.413323074E0,-3.058539927E-1,-5.389999971E-2,1.688000048E-3
5.418303757E0,-3.124220073E-1,-5.786800012E-2,5.754999816E-3
5.423284909E0,-3.172320127E-1,-6.404399872E-2,1.092499960E-2
5.428265603E0,-3.204399943E-1,-7.275000215E-2,1.659299992E-2
5.433246447E0,-3.226230145E-1,-8.495199680E-2,2.272300050E-2
5.438227370E0,-3.206659853E-1,-1.008419991E-1,2.730800025E-2
5.443208059E0,-3.154619932E-1,-1.212140024E-1,3.097599931E-2
5.448188981E0,-3.055520058E-1,-1.431329995E-1,3.250600025E-2
5.453169829E0,-2.925809920E-1,-1.658380032E-1,3.245300055E-2
5.458150755E0,-2.769039869E-1,-1.879599988E-1,3.049599938E-2
5.463131678E0,-2.580440044E-1,-2.101269960E-1,2.778000012E-2
5.468112601E0,-2.340800017E-1,-2.300949991E-1,2.496900037E-2
5.473093295E0,-2.021390051E-1,-2.445379943E-1,2.316799946E-2
5.478074216E0,-1.631810069E-1,-2.513679862E-1,2.223699912E-2
5.483055065E0,-1.206479967E-1,-2.515319884E-1,2.270600013E-2
5.488035991E0,-7.819399983E-2,-2.451499999E-1,2.442100085E-2
5.493016685E0,-3.644299880E-2,-2.326399982E-1,2.796499990E-2
5.497997611E0,1.618999988E-3,-2.145230025E-1,3.514099866E-2
5.502978459E0,3.142999858E-2,-1.902610064E-1,4.535099864E-2
5.507959380E0,5.278899893E-2,-1.612740010E-1,5.766899884E-2
5.512940303E0,6.687600166E-2,-1.302320063E-1,7.020399719E-2
5.517920998E0,7.406000048E-2,-1.000360027E-1,8.182899654E-2
5.522902150E0,7.533600181E-2,-7.019700110E-2,9.202300012E-2
5.527882746E0,7.093100250E-2,-4.281400144E-2,1.019020006E-1
5.532863667E0,6.370300055E-2,-1.822499931E-2,1.099959984E-1
5.537844571E0,5.645399913E-2,2.976000076E-3,1.167910025E-1
5.542825266E0,4.924900085E-2,2.057600021E-2,1.219080016E-1
5.547806187E0,4.629499838E-2,3.286999837E-2,1.240860000E-1
5.552787045E0,4.910099879E-2,3.804299980E-2,1.230190024E-1
5.557767966E0,6.009399891E-2,3.643700108E-2,1.181429997E-1
5.562748889E0,7.865799963E-2,3.010700084E-2,1.091990024E-1
5.567729573E0,1.007229984E-1,2.248900011E-2,9.572300315E-2
5.572710494E0,1.231629997E-1,1.454399992E-2,7.900399715E-2
5.577691417E0,1.467330009E-1,8.888999932E-3,6.160699949E-2
5.582672233E0,1.700599939E-1,7.876999676E-3,4.513600096E-2
5.587653154E0,1.907629967E-1,1.166499965E-2,2.985199913E-2
5.592633848E0,2.072619945E-1,2.127099968E-2,1.481499989E-2
5.597614765E0,2.185460031E-1,3.425500169E-2,1.125999959E-3
5.602595613E0,2.256570011E-1,5.000400171E-2,-1.110100001E-2
5.607576534E0,2.301959991E-1,6.790400296E-2,-2.158600092E-2
5.612557457E0,2.315309942E-1,8.701200038E-2,-3.016600013E-2
5.617538381E0,2.279369980E-1,1.052350029E-1,-3.575199842E-2
5.622519075E0,2.159319967E-1,1.205789968E-1,-3.741199896E-2
5.627499996E0,1.966229975E-1,1.320250034E-1,-3.624999896E-2
5.632480844E0,1.721740067E-1,1.400970072E-1,-3.200099990E-2
5.637461783E0,1.454630047E-1,1.441919953E-1,-2.445100062E-2
5.642442706E0,1.170739979E-1,1.436370015E-1,-1.592200063E-2
5.647423401E0,9.046699852E-2,1.396809965E-1,-6.672000047E-3
5.652404227E0,7.147900015E-2,1.310909986E-1,1.046000049E-3
5.657385150E0,6.088700145E-2,1.192379966E-1,7.796000224E-3
5.662366073E0,5.745600164E-2,1.056049988E-1,1.402600016E-2
5.667346767E0,6.064900011E-2,9.176299721E-2,2.067000046E-2
5.672327688E0,6.894899905E-2,7.672899961E-2,2.751700021E-2
5.677308537E0,8.152700216E-2,6.170200184E-2,3.376099840E-2
5.682289438E0,9.765599668E-2,4.706300050E-2,3.952199966E-2
5.687270132E0,1.143240035E-1,3.254399821E-2,4.489799961E-2
5.692251053E0,1.313630044E-1,1.939499937E-2,5.111299828E-2
5.697231972E0,1.446110010E-1,9.451000020E-3,5.800100043E-2
5.702212820E0,1.531019956E-1,4.112000111E-3,6.612899899E-2
5.707193741E0,1.546600014E-1,5.268999841E-3,7.563199848E-2
5.712174659E0,1.490110010E-1,1.225899998E-2,8.444800228E-2
5.717155354E0,1.408520043E-1,2.212999947E-2,9.207499772E-2
5.722136198E0,1.323460042E-1,3.398500010E-2,9.804800153E-2
5.727117116E0,1.242000014E-1,4.704299942E-2,1.003379971E-1
5.732098039E0,1.160869971E-1,5.985299870E-2,9.884899855E-2
5.737078733E0,1.087670028E-1,7.246299833E-2,9.453000128E-2
5.742059655E0,1.039969996E-1,8.497700095E-2,9.018000215E-2
5.747040578E0,1.010750011E-1,9.696699679E-2,8.714800328E-2
5.752021426E0,9.937400371E-2,1.079630032E-1,8.504100144E-2
5.757002347E0,9.788700193E-2,1.168259978E-1,8.354700357E-2
5.761983041E0,9.656900167E-2,1.242989972E-1,8.209700137E-2
5.766963962E0,9.481199831E-2,1.300210059E-1,8.048900217E-2
5.771944814E0,9.385400265E-2,1.335130036E-1,7.652200013E-2
5.776925736E0,9.296000004E-2,1.338170022E-1,7.015600055E-2
5.781906659E0,9.147799760E-2,1.311870068E-1,6.072099879E-2
5.786887339E0,8.997400105E-2,1.251250058E-1,4.742800072E-2
5.791868260E0,8.864299953E-2,1.160610020E-1,3.200500086E-2
5.796849108E0,8.821599931E-2,1.048519984E-1,1.270699967E-2
5.801830048E0,8.806700259E-2,9.237200022E-2,-8.348999545E-3
5.806810971E0,8.788300306E-2,7.894100249E-2,-3.247199953E-2
5.811791666E0,8.920499682E-2,6.449399889E-2,-5.777300149E-2
5.816772601E0,9.262499958E-2,4.999800026E-2,-8.241900057E-2
5.821753524E0,9.785000235E-2,3.578500077E-2,-1.053910032E-1
5.826734372E0,1.049040034E-1,2.211599983E-2,-1.267060041E-1
5.831715298E0,1.125250012E-1,9.647999890E-3,-1.468230039E-1
5.836695992E0,1.209850013E-1,-2.241000067E-3,-1.655980051E-1
5.841676914E0,1.299870014E-1,-1.341199968E-2,-1.820220053E-1
5.846657823E0,1.401260048E-1,-2.343500033E-2,-1.958640069E-1
5.851638746E0,1.503439993E-1,-3.260200098E-2,-2.066819966E-1
5.856619669E0,1.592849940E-1,-4.063799977E-2,-2.137400061E-1
5.861600507E0,1.670120060E-1,-4.834400117E-2,-2.159390002E-1
5.866581428E0,1.726820022E-1,-5.540300161E-2,-2.122720033E-1
5.871562117E0,1.750479937E-1,-6.181599945E-2,-2.018039972E-1
5.876543038E0,1.733659953E-1,-6.854300201E-2,-1.842990071E-1
5.881523887E0,1.685719937E-1,-7.468999922E-2,-1.602720022E-1
5.886504799E0,1.604599953E-1,-7.954499871E-2,-1.296859980E-1
5.891485493E0,1.482239962E-1,-8.361899853E-2,-9.634300321E-2
5.896466337E0,1.323059946E-1,-8.726099879E-2,-6.328400224E-2
5.901447274E0,1.128029972E-1,-9.049600363E-2,-3.370799869E-2
5.906428197E0,9.139200300E-2,-9.410300106E-2,-9.409000166E-3
5.911408892E0,6.921900064E-2,-9.826699644E-2,8.817000315E-3
5.916389813E0,4.726599902E-2,-1.037049964E-1,1.963100024E-2
5.921370736E0,2.632199973E-2,-1.105450019E-1,2.553699911E-2
5.926351584E0,7.075000089E-3,-1.195290014E-1,2.668599971E-2
5.931332510E0,-8.511999622E-3,-1.302910000E-1,2.454099990E-2
5.936313204E0,-2.002600022E-2,-1.410720050E-1,1.963300072E-2
5.941294356E0,-2.732099965E-2,-1.523779929E-1,1.391800027E-2
5.946275046E0,-3.181700036E-2,-1.642960012E-1,9.347000159E-3
5.951255890E0,-3.394500166E-2,-1.760009974E-1,6.072999910E-3
5.956236813E0,-3.398799896E-2,-1.875990033E-1,5.880000070E-3
5.961217741E0,-3.280900046E-2,-1.978349984E-1,9.236999787E-3
5.966198435E0,-3.129100055E-2,-2.075559944E-1,1.377400011E-2
5.971179279E0,-2.918200009E-2,-2.158450037E-1,1.995700039E-2
5.976160279E0,-2.653699927E-2,-2.227299958E-1,2.809599973E-2
5.981141128E0,-2.352900058E-2,-2.282380015E-1,3.735300153E-2
5.986122049E0,-2.099400014E-2,-2.313050032E-1,4.788700119E-2
5.991102972E0,-1.985999942E-2,-2.313950062E-1,5.771800131E-2
5.996083666E0,-2.182500064E-2,-2.305099964E-1,6.654100120E-2
6.001064524E0,-2.620599978E-2,-2.282699943E-1,7.334399968E-2
6.006045447E0,-3.271200135E-2,-2.253919989E-1,7.801999897E-2
6.011026142E0,-4.040699825E-2,-2.227710038E-1,7.946299762E-2
6.016007063E0,-4.898900166E-2,-2.215040028E-1,7.742500305E-2
6.020987911E0,-5.821700022E-2,-2.216390073E-1,6.915400177E-2
6.025968832E0,-6.719499826E-2,-2.218119949E-1,5.519599840E-2
6.030949736E0,-7.540000230E-2,-2.228440046E-1,3.624000028E-2
6.035930659E0,-8.190000057E-2,-2.250089943E-1,1.200900041E-2
6.040911354E0,-8.569499850E-2,-2.277639955E-1,-1.516399998E-2
6.045892183E0,-8.668799698E-2,-2.312439978E-1,-4.507499933E-2
6.050873106E0,-8.295000345E-2,-2.354969978E-1,-7.436800003E-2
6.055854029E0,-7.561700046E-2,-2.382609993E-1,-9.856700152E-2
6.060834723E0,-6.477099657E-2,-2.404080033E-1,-1.178629994E-1
6.065815644E0,-5.060400069E-2,-2.394440025E-1,-1.327250004E-1
6.070796567E0,-3.288599849E-2,-2.354180068E-1,-1.439130008E-1
6.075777509E0,-1.309200004E-2,-2.272790074E-1,-1.510750055E-1
6.080758358E0,9.061999619E-3,-2.143840045E-1,-1.536770016E-1
6.085739045E0,3.310599923E-2,-1.967259943E-1,-1.498840004E-1
6.090719966E0,5.808899924E-2,-1.748760045E-1,-1.403380036E-1
6.095700889E0,8.356499672E-2,-1.483920068E-1,-1.261239946E-1
6.100681723E0,1.062450036E-1,-1.183300018E-1,-1.066450030E-1
6.105662416E0,1.254100055E-1,-8.368200064E-2,-8.199600130E-2
6.110643337E0,1.394650042E-1,-4.606800154E-2,-5.467899889E-2
6.115624274E0,1.489849985E-1,-7.292999886E-3,-2.561100014E-2
6.120605122E0,1.528339982E-1,3.145100176E-2,2.685999963E-3
6.125586120E0,1.498489976E-1,6.902199984E-2,2.755899914E-2
6.130566968E0,1.405010074E-1,1.045050025E-1,4.835100099E-2
6.135547660E0,1.251060069E-1,1.376170069E-1,6.338900328E-2
6.140528505E0,1.049370021E-1,1.678099930E-1,7.260999829E-2
6.145509457E0,8.254499733E-2,1.966239959E-1,7.596500218E-2
6.150490380E0,5.990599841E-2,2.235070020E-1,7.360500097E-2
6.155471303E0,3.911399841E-2,2.476949990E-1,6.648100168E-2
6.160451997E0,2.203400061E-2,2.700450122E-1,5.644100159E-2
6.165432918E0,9.327000007E-3,2.911190093E-1,4.400299862E-2
6.170413841E0,1.269000000E-3,3.105950058E-1,3.207400069E-2
6.175394690E0,-2.047999995E-3,3.270690143E-1,2.048799954E-2
6.180375611E0,-1.447999966E-3,3.406949937E-1,1.000600029E-2
6.185356305E0,1.459000050E-3,3.505750000E-1,1.045000041E-3
6.190337240E0,6.785000209E-3,3.563719988E-1,-8.036999963E-3
6.195318088E0,1.347300038E-2,3.597970009E-1,-1.409099996E-2
6.200299004E0,2.048300020E-2,3.613879979E-1,-1.701899990E-2
6.205279927E0,2.781300060E-2,3.599790037E-1,-2.025499940E-2
6.210260622E0,3.304100037E-2,3.580859900E-1,-2.271600068E-2
6.215241543E0,3.473300114E-2,3.549099863E-1,-2.398299985E-2
6.220222391E0,3.206399828E-2,3.499450088E-1,-2.365499921E-2
6.225203312E0,2.539500035E-2,3.433539867E-1,-2.269100025E-2
6.230184216E0,1.463400014E-2,3.344430029E-1,-2.274999954E-2
6.235164910E0,-1.679999987E-4,3.223330081E-1,-2.445599996E-2
6.240145755E0,-1.839300059E-2,3.077290058E-1,-2.965299971E-2
6.245126750E0,-4.012500122E-2,2.906840146E-1,-3.738500178E-2
6.250107598E0,-6.178800017E-2,2.716839910E-1,-4.689100012E-2
6.255088519E0,-8.211900294E-2,2.491420060E-1,-5.736799911E-2
6.260069213E0,-9.953399748E-2,2.244040072E-1,-6.740999967E-2
6.265050134E0,-1.136559993E-1,2.002090067E-1,-7.780600339E-2
6.270031057E0,-1.227840036E-1,1.757449955E-1,-8.829399943E-2
6.275011921E0,-1.245950013E-1,1.520240009E-1,-9.764199704E-2
6.279992842E0,-1.201059967E-1,1.301749945E-1,-1.051200032E-1
6.284973536E0,-1.080240011E-1,1.098219976E-1,-1.105920002E-1
6.289954452E0,-8.993099630E-2,8.958099782E-2,-1.133729964E-1
6.294935375E0,-6.600599736E-2,7.070700079E-2,-1.120230034E-1
6.299916223E0,-3.863099962E-2,5.362899974E-2,-1.073670015E-1
6.304897139E0,-1.015499979E-2,3.817899898E-2,-9.993900359E-2
6.309877834E0,1.702900045E-2,2.492499910E-2,-9.067700058E-2
6.314858751E0,4.126900062E-2,1.527899969E-2,-8.045899868E-2
6.319839674E0,6.340499967E-2,9.221999906E-3,-7.017699629E-2
6.324820522E0,8.111400157E-2,7.505999878E-3,-5.869499967E-2
6.329801457E0,9.477099776E-2,9.642999619E-3,-4.721099883E-2
6.334782151E0,1.046110019E-1,1.544000022E-2,-3.559799865E-2
6.339763073E0,1.093539968E-1,2.518500015E-2,-2.247699909E-2
6.344743991E0,1.104680002E-1,3.655700013E-2,-8.852000348E-3
6.349724839E0,1.079109982E-1,4.916499928E-2,4.091000184E-3
6.354705760E0,1.013320014E-1,6.250700355E-2,1.578599960E-2
6.359686473E0,9.306800365E-2,7.567200065E-2,2.527000010E-2
6.364667394E0,8.371199667E-2,8.748099953E-2,3.298500180E-2
6.369648307E0,7.328999788E-2,9.814000130E-2,3.858200088E-2
6.374629156E0,6.290899962E-2,1.069869995E-1,4.286900163E-2
6.379610077E0,5.173199996E-2,1.141289994E-1,4.648900032E-2
6.384591000E0,4.112999886E-2,1.194590032E-1,4.842799902E-2
6.389571694E0,3.009499982E-2,1.235949993E-1,4.927700013E-2
6.394552538E0,1.909600012E-2,1.239669994E-1,4.497599974E-2
6.399533466E0,1.106300019E-2,1.221570000E-1,3.706600145E-2
6.404514389E0,5.402999930E-3,1.190500036E-1,2.428999916E-2
6.409495084E0,8.110000053E-4,1.134990007E-1,6.854000036E-3
6.414476203E0,-3.309000051E-3,1.060589999E-1,-1.220100001E-2
6.419456897E0,-7.180000190E-3,9.812600166E-2,-3.102100082E-2
6.424437741E0,-1.289399993E-2,9.063199908E-2,-4.875899851E-2
6.429418669E0,-1.995600015E-2,8.252900094E-2,-6.358700246E-2
6.434399363E0,-2.854200080E-2,7.419499755E-2,-7.513099909E-2
6.439380285E0,-3.796499968E-2,6.752800196E-2,-8.206800371E-2
6.444361222E0,-4.990800098E-2,6.066200137E-2,-8.665899932E-2
6.449342070E0,-6.374000013E-2,5.306300148E-2,-8.745899796E-2
6.454322762E0,-7.742500305E-2,4.538699985E-2,-8.509899676E-2
6.459303678E0,-9.073299915E-2,3.720299900E-2,-7.925199717E-2
6.464284601E0,-1.032319963E-1,2.740000002E-2,-7.004100084E-2
6.469265529E0,-1.152750030E-1,1.668499969E-2,-5.775700137E-2
6.474246452E0,-1.249089986E-1,4.600999877E-3,-4.294899851E-2
6.479227301E0,-1.323609948E-1,-7.490999997E-3,-2.593199909E-2
6.484208007E0,-1.374280006E-1,-2.016600035E-2,-8.741999976E-3
6.489188928E0,-1.398220062E-1,-3.285999969E-2,8.839000016E-3
6.494169851E0,-1.401409954E-1,-4.365399852E-2,2.590500005E-2
6.499150699E0,-1.395660043E-1,-5.267199874E-2,4.230400175E-2
6.504131620E0,-1.377020031E-1,-6.001399830E-2,5.753000081E-2
6.509112315E0,-1.354440004E-1,-6.633500010E-2,7.207299769E-2
6.514093241E0,-1.324889958E-1,-7.196599990E-2,8.472900093E-2
6.519074164E0,-1.286559999E-1,-7.698100060E-2,9.606599808E-2
6.524055012E0,-1.244409978E-1,-8.137699962E-2,1.042430028E-1
6.529035933E0,-1.203019992E-1,-8.489300311E-2,1.077829972E-1
6.534016627E0,-1.174380034E-1,-8.809000254E-2,1.058909968E-1
6.538997549E0,-1.137429997E-1,-9.058299661E-2,9.933300316E-2
6.543978491E0,-1.087429971E-1,-9.142900258E-2,9.325700253E-2
6.548959414E0,-1.057640016E-1,-9.255199879E-2,8.469299972E-2
6.553940262E0,-1.051049978E-1,-9.517399967E-2,7.464999706E-2
6.558920959E0,-1.044510007E-1,-9.797500074E-2,6.450799853E-2
6.563901880E0,-1.046940014E-1,-1.012360007E-1,5.396899953E-2
6.568882803E0,-1.065479964E-1,-1.049939990E-1,4.304699972E-2
6.573863732E0,-1.094349995E-1,-1.095969975E-1,3.181999922E-2
6.578844580E0,-1.127030030E-1,-1.137899980E-1,2.149700001E-2
6.583825501E0,-1.162109971E-1,-1.170179993E-1,1.164299995E-2
6.588806175E0,-1.208690032E-1,-1.195349991E-1,1.205999986E-3
6.593787096E0,-1.254259944E-1,-1.218689978E-1,-9.441000409E-3
6.598767944E0,-1.311140060E-1,-1.231610030E-1,-1.961899921E-2
6.603748851E0,-1.382189989E-1,-1.242579967E-1,-2.737900056E-2
6.608729775E0,-1.465840042E-1,-1.244980022E-1,-3.358700126E-2
6.613710698E0,-1.549350023E-1,-1.239230037E-1,-3.797899932E-2
6.618691310E0,-1.634690017E-1,-1.221230030E-1,-3.996000066E-2
6.623672308E0,-1.724019945E-1,-1.187030002E-1,-4.039499909E-2
6.628653156E0,-1.822309941E-1,-1.153929979E-1,-4.087100178E-2
6.633633848E0,-1.925839931E-1,-1.117860004E-1,-4.042199999E-2
6.638614770E0,-2.034189999E-1,-1.083270013E-1,-4.063799977E-2
6.643595693E0,-2.158540040E-1,-1.071560010E-1,-4.215100035E-2
6.648576541E0,-2.295700014E-1,-1.081990004E-1,-4.489300027E-2
6.653557462E0,-2.443729937E-1,-1.110749990E-1,-4.683199897E-2
6.658538385E0,-2.608759999E-1,-1.170800030E-1,-4.863899946E-2
6.663519079E0,-2.788029909E-1,-1.250759959E-1,-4.906199872E-2
6.668500000E0,-2.976140082E-1,-1.360699981E-1,-4.921000078E-2
6.673480924E0,-3.155350089E-1,-1.492699981E-1,-4.670999944E-2
6.678461772E0,-3.301280141E-1,-1.644899994E-1,-4.222000018E-2
6.683442693E0,-3.384810090E-1,-1.799239963E-1,-3.435000032E-2
6.688423401E0,-3.413980007E-1,-1.957810074E-1,-2.339399979E-2
6.693404322E0,-3.403460085E-1,-2.140849978E-1,-1.475699991E-2
6.698385170E0,-3.347829878E-1,-2.330700010E-1,-4.271999933E-3
6.703366091E0,-3.224779963E-1,-2.492160052E-1,8.903999813E-3
6.708347015E0,-3.058669865E-1,-2.607280016E-1,2.289300039E-2
6.713327709E0,-2.833839953E-1,-2.669369876E-1,3.785099834E-2
6.718308630E0,-2.551819980E-1,-2.660939991E-1,5.384000018E-2
6.723289553E0,-2.219579965E-1,-2.573750019E-1,7.173799723E-2
6.728270401E0,-1.859939992E-1,-2.420369983E-1,8.950500190E-2
6.733251322E0,-1.511570066E-1,-2.208279967E-1,1.079950035E-1
6.738232017E0,-1.186920032E-1,-1.954970062E-1,1.263639927E-1
6.743212938E0,-9.029299766E-2,-1.657820046E-1,1.452080011E-1
6.748193856E0,-6.680700183E-2,-1.344130039E-1,1.618160009E-1
6.753174704E0,-4.808299989E-2,-1.029969975E-1,1.751019955E-1
6.758155625E0,-3.450800106E-2,-7.218199968E-2,1.863050014E-1
6.763136543E0,-2.722400054E-2,-4.280599952E-2,1.954600066E-1
6.768117237E0,-2.350199968E-2,-1.611299999E-2,2.021449953E-1
6.773098389E0,-2.186599933E-2,6.837000139E-3,2.065349966E-1
6.778078974E0,-2.030099928E-2,2.698599920E-2,2.085150033E-1
6.783059895E0,-1.892199926E-2,4.355100170E-2,2.072899938E-1
6.788040818E0,-1.660699956E-2,5.622899905E-2,2.035650015E-1
6.793021512E0,-9.328000247E-3,6.649900228E-2,1.986050010E-1
6.798002356E0,6.008999888E-3,7.382199913E-2,1.914449930E-1
6.802983356E0,2.868499979E-2,7.776299864E-2,1.797160059E-1
6.807964205E0,5.946899951E-2,7.912900299E-2,1.643940061E-1
6.812945126E0,9.533099830E-2,8.086100221E-2,1.463910043E-1
6.817925820E0,1.321929991E-1,8.562999964E-2,1.268180013E-1
6.822906957E0,1.680659950E-1,9.340299666E-2,1.048379987E-1
6.827887574E0,2.004050016E-1,1.035809964E-1,8.329500258E-2
6.832868495E0,2.267230004E-1,1.147229970E-1,6.095400080E-2
6.837849414E0,2.471400052E-1,1.260000020E-1,3.739900142E-2
6.842830109E0,2.643029988E-1,1.396169960E-1,1.727700047E-2
6.847811034E0,2.774589956E-1,1.545979977E-1,-1.371999970E-3
6.852792188E0,2.852379978E-1,1.685619950E-1,-1.910199970E-2
6.857772805E0,2.869279981E-1,1.797329932E-1,-3.475400060E-2
6.862753726E0,2.817670107E-1,1.872009933E-1,-4.919200018E-2
6.867734420E0,2.698499858E-1,1.894090027E-1,-6.137999892E-2
6.872715342E0,2.518250048E-1,1.863220036E-1,-7.183299959E-2
6.877696280E0,2.280829996E-1,1.779790074E-1,-7.885400206E-2
6.882677128E0,2.012999952E-1,1.651120037E-1,-8.287499845E-2
6.887658049E0,1.738100052E-1,1.497749984E-1,-8.290000260E-2
6.892638972E0,1.472190022E-1,1.325879991E-1,-8.074899763E-2
6.897619666E0,1.247349977E-1,1.155840009E-1,-7.564400136E-2
6.902600587E0,1.066820025E-1,1.000650004E-1,-6.990099698E-2
6.907581415E0,9.415700287E-2,8.586200327E-2,-6.441199780E-2
6.912562336E0,8.732700348E-2,7.328700274E-2,-5.868000165E-2
6.917543259E0,8.410000056E-2,6.354600191E-2,-5.268999934E-2
6.922523958E0,8.324199915E-2,5.600799993E-2,-4.623800144E-2
6.927504879E0,8.325699717E-2,4.870099947E-2,-3.967199847E-2
6.932485727E0,8.448199928E-2,4.381199926E-2,-3.224800155E-2
6.937466648E0,8.693099767E-2,4.105100036E-2,-2.490499988E-2
6.942447571E0,8.818700165E-2,4.075700045E-2,-1.800799929E-2
6.947428266E0,8.472300321E-2,4.218199849E-2,-9.170999750E-3
6.952409187E0,7.824800164E-2,4.606899992E-2,2.367000096E-3
6.957390110E0,6.936699897E-2,5.307099968E-2,1.638600044E-2
6.962371028E0,6.040899828E-2,6.007799879E-2,3.143199906E-2
6.967351876E0,5.356299877E-2,6.664100289E-2,4.583200067E-2
6.972332569E0,4.846800119E-2,7.144600153E-2,5.945799872E-2
6.977313495E0,4.573399946E-2,7.624699920E-2,7.169999927E-2
6.982294343E0,4.437600076E-2,8.136399835E-2,8.366400003E-2
6.987275264E0,4.450400174E-2,8.622399718E-2,9.489499778E-2
6.992256197E0,4.403100163E-2,9.158000350E-2,1.054769978E-1
6.997236891E0,4.282100126E-2,9.746199846E-2,1.133029982E-1
7.002217845E0,4.051300138E-2,1.026130021E-1,1.191809997E-1
7.007198768E0,3.873199970E-2,1.065429971E-1,1.222880036E-1
7.012179617E0,3.832799941E-2,1.092400029E-1,1.231129989E-1
7.017160534E0,3.947399929E-2,1.105680019E-1,1.201979965E-1
7.022141457E0,4.185799882E-2,1.097780019E-1,1.132050008E-1
7.027122151E0,4.676600173E-2,1.061460003E-1,1.007149965E-1
7.032103067E0,5.528900027E-2,1.001759991E-1,8.319000155E-2
7.037083915E0,6.785299629E-2,9.144099802E-2,6.067800149E-2
7.042064836E0,8.416199684E-2,8.011200279E-2,3.532600030E-2
7.047045540E0,1.017419994E-1,6.626000255E-2,7.765999995E-3
7.052026461E0,1.191900000E-1,5.121999979E-2,-1.881299913E-2
7.057007384E0,1.367879957E-1,3.586800024E-2,-4.403600097E-2
7.061988247E0,1.545049995E-1,1.981999911E-2,-6.721600145E-2
7.066969168E0,1.722539961E-1,2.512000035E-3,-8.869600296E-2
7.071949863E0,1.891350001E-1,-1.414200012E-2,-1.084979996E-1
7.076930784E0,2.048099935E-1,-2.893500030E-2,-1.260630041E-1
7.081911707E0,2.185640037E-1,-4.281200096E-2,-1.416469961E-1
7.086892630E0,2.289910018E-1,-5.544700101E-2,-1.536040008E-1
7.091873478E0,2.373339981E-1,-6.670299917E-2,-1.611910015E-1
7.096854399E0,2.438800037E-1,-7.577200234E-2,-1.644500047E-1
7.101835093E0,2.473299950E-1,-8.283600211E-2,-1.629720032E-1
7.106816014E0,2.472160012E-1,-8.810299635E-2,-1.580229998E-1
7.111796938E0,2.428469956E-1,-9.065800160E-2,-1.498489976E-1
7.116777786E0,2.343090028E-1,-9.206199646E-2,-1.390970051E-1
7.121758707E0,2.217330039E-1,-9.159000218E-2,-1.263449937E-1
7.126739416E0,2.049030066E-1,-9.051000327E-2,-1.125039980E-1
7.131720337E0,1.849270016E-1,-9.022100270E-2,-9.817499667E-2
7.136701260E0,1.633930057E-1,-9.018100053E-2,-8.422199637E-2
7.141682108E0,1.417589933E-1,-9.117099643E-2,-6.954900175E-2
7.146663106E0,1.208129972E-1,-9.375000000E-2,-5.461699888E-2
7.151643955E0,1.011189967E-1,-9.702699631E-2,-4.107600078E-2
7.156624861E0,8.255500346E-2,-1.007980034E-1,-2.966799960E-2
7.161605784E0,6.457599998E-2,-1.055380031E-1,-2.079799958E-2
7.166586478E0,4.802199826E-2,-1.108620018E-1,-1.434000023E-2
7.171567390E0,3.196899965E-2,-1.178029999E-1,-8.216000162E-3
7.176548238E0,1.848799922E-2,-1.264840066E-1,-8.900000248E-4
7.181529149E0,8.213999681E-3,-1.379629970E-1,7.586999796E-3
7.186509844E0,1.399999950E-3,-1.504009962E-1,1.698699966E-2
7.191490688E0,-4.497999791E-3,-1.625850052E-1,2.584799938E-2
7.196471597E0,-8.640999906E-3,-1.746959984E-1,3.351100162E-2
7.201452520E0,-1.093500014E-2,-1.850229949E-1,4.040800035E-2
7.206433214E0,-1.270600036E-2,-1.945620030E-1,4.618100077E-2
7.211414145E0,-1.463400014E-2,-2.029599994E-1,5.022399873E-2
7.216395068E0,-1.668700017E-2,-2.098049968E-1,5.237400159E-2
7.221375897E0,-1.852099970E-2,-2.144510001E-1,5.377399921E-2
7.226356818E0,-2.024400048E-2,-2.170819938E-1,5.425599962E-2
7.231337512E0,-2.219700068E-2,-2.170809954E-1,5.617399886E-2
7.236318649E0,-2.388600074E-2,-2.146530002E-1,5.809099972E-2
7.241299343E0,-2.619500086E-2,-2.106039971E-1,6.039100140E-2
7.246280264E0,-2.848999947E-2,-2.051949948E-1,6.133700162E-2
7.251261118E0,-3.134699911E-2,-1.994619966E-1,6.036999822E-2
7.256241810E0,-3.554899991E-2,-1.946839988E-1,5.812799931E-2
7.261222731E0,-3.961199895E-2,-1.919479966E-1,5.301500112E-2
7.266203659E0,-4.382000118E-2,-1.910990030E-1,4.445499927E-2
7.271184507E0,-4.827199876E-2,-1.932300031E-1,3.122200072E-2
7.276165214E0,-5.228099972E-2,-1.997860074E-1,1.405999996E-2
7.281146365E0,-5.491299927E-2,-2.084150016E-1,-6.053000223E-3
7.286127291E0,-5.765699968E-2,-2.186380029E-1,-2.603900060E-2
7.291107969E0,-5.998000130E-2,-2.286040038E-1,-4.624199867E-2
7.296088890E0,-6.139200181E-2,-2.374709994E-1,-6.482999772E-2
7.301069738E0,-6.022299826E-2,-2.452030033E-1,-8.295600116E-2
7.306050659E0,-5.615900084E-2,-2.502390146E-1,-9.899000078E-2
7.311031354E0,-4.958799854E-2,-2.525449991E-1,-1.128380001E-1
7.316012198E0,-4.228800163E-2,-2.522819936E-1,-1.236620024E-1
7.320993121E0,-3.178700060E-2,-2.479860038E-1,-1.318099946E-1
7.325974044E0,-1.930000074E-2,-2.377170026E-1,-1.367319971E-1
7.330954967E0,-5.160999950E-3,-2.202450037E-1,-1.384990066E-1
7.335935656E0,1.004400011E-2,-1.955409944E-1,-1.371670067E-1
7.340916500E0,2.706200071E-2,-1.648599952E-1,-1.302279979E-1
7.345897495E0,4.431400076E-2,-1.271640062E-1,-1.167600006E-1
7.350878344E0,5.945599824E-2,-8.442900330E-2,-9.851499647E-2
7.355859265E0,7.093299925E-2,-3.836600110E-2,-7.504499704E-2
7.360839949E0,7.998500019E-2,9.912000038E-3,-4.892700166E-2
7.365820870E0,8.544000238E-2,5.766500160E-2,-2.075400017E-2
7.370801793E0,8.603700250E-2,1.019330025E-1,5.549999885E-3
7.375782670E0,8.115100116E-2,1.415610015E-1,2.972299978E-2
7.380763592E0,7.226300240E-2,1.759449989E-1,4.854999855E-2
7.385744286E0,5.972599983E-2,2.054949999E-1,6.310100108E-2
7.390725217E0,4.477899894E-2,2.306039929E-1,7.212500274E-2
7.395706140E0,2.809900045E-2,2.524789870E-1,7.506500185E-2
7.400687002E0,1.226300001E-2,2.707450092E-1,7.275799662E-2
7.405667923E0,-1.233999967E-3,2.859950066E-1,6.593099982E-2
7.410648846E0,-1.203200035E-2,2.980050147E-1,5.542600155E-2
7.415629570E0,-1.830800064E-2,3.072929978E-1,4.325599968E-2
7.420610491E0,-1.917999983E-2,3.139579892E-1,3.134800121E-2
7.425591414E0,-1.476900000E-2,3.203740120E-1,2.163100056E-2
7.430572252E0,-7.410000078E-3,3.248049915E-1,1.289900020E-2
7.435553173E0,2.755000023E-3,3.283500075E-1,4.829000216E-3
7.440533867E0,1.465400029E-2,3.297809958E-1,-4.244999960E-3
7.445514794E0,2.628000081E-2,3.278610110E-1,-1.258900017E-2
7.450495642E0,3.660200164E-2,3.229419887E-1,-1.907400042E-2
7.455476597E0,4.607199878E-2,3.143459857E-1,-2.317599952E-2
7.460457291E0,5.479799956E-2,3.046599925E-1,-2.454200014E-2
7.465438212E0,6.209800020E-2,2.950600088E-1,-2.384700067E-2
7.470419135E0,6.634200364E-2,2.847610116E-1,-2.348300070E-2
7.475400058E0,6.660900265E-2,2.732029855E-1,-2.459600009E-2
7.480380907E0,6.184199825E-2,2.601900101E-1,-2.657200024E-2
7.485361828E0,5.068600178E-2,2.439689934E-1,-2.840800025E-2
7.490342522E0,3.467600048E-2,2.246080041E-1,-3.089899942E-2
7.495323443E0,1.458800025E-2,2.020950019E-1,-3.467899933E-2
7.500304276E0,-7.737000007E-3,1.754669994E-1,-3.929900005E-2
7.505285197E0,-2.827999927E-2,1.463110000E-1,-4.510200024E-2
7.510266134E0,-4.599199817E-2,1.167929992E-1,-5.051099882E-2
7.515247057E0,-5.901100114E-2,8.788000047E-2,-5.598700047E-2
7.520227757E0,-6.572400033E-2,6.117400154E-2,-6.017600000E-2
7.525208678E0,-6.496500224E-2,3.910699859E-2,-6.276100129E-2
7.530189526E0,-5.797300115E-2,2.132599987E-2,-6.336099654E-2
7.535170447E0,-4.484599829E-2,7.675000001E-3,-6.358599663E-2
7.540151370E0,-2.834299952E-2,-2.606000053E-3,-6.485000253E-2
7.545132065E0,-9.266999550E-3,-1.146900002E-2,-6.643699855E-2
7.550112991E0,1.142000034E-2,-1.792199910E-2,-6.828100234E-2
7.555093914E0,3.301399946E-2,-2.180700004E-2,-7.039400190E-2
7.560074837E0,5.456700176E-2,-2.351099998E-2,-7.100000232E-2
7.565055674E0,7.512900233E-2,-2.263999917E-2,-6.912200153E-2
7.570036366E0,9.349499643E-2,-1.804799959E-2,-6.404399872E-2
7.575017287E0,1.075479984E-1,-1.022399962E-2,-5.749199912E-2
7.579998136E0,1.180889979E-1,8.849999867E-4,-4.822799936E-2
7.584979057E0,1.252450049E-1,1.411600038E-2,-3.756099939E-2
7.589959980E0,1.285430044E-1,2.865800075E-2,-2.513300069E-2
7.594940674E0,1.288830042E-1,4.571999982E-2,-1.327400003E-2
7.599921595E0,1.265379936E-1,6.549700350E-2,-2.127999905E-3
7.604902443E0,1.205120012E-1,8.693800122E-2,8.448000066E-3
7.609883369E0,1.116039976E-1,1.077940017E-1,1.716499962E-2
7.614864292E0,9.994599968E-2,1.256269962E-1,2.311700024E-2
7.619845216E0,8.583000302E-2,1.409800053E-1,2.730399929E-2
7.624825925E0,7.064300030E-2,1.537079960E-1,3.039900027E-2
7.629806769E0,5.459799990E-2,1.630620062E-1,3.191599995E-2
7.634787677E0,3.965599835E-2,1.683740020E-1,3.019399941E-2
7.639768600E0,2.642600052E-2,1.704519987E-1,2.575100027E-2
7.644749295E0,1.603199914E-2,1.693049967E-1,1.951500028E-2
7.649730240E0,8.419999853E-3,1.653880030E-1,9.738000110E-3
7.654711088E0,1.755999983E-3,1.602109969E-1,-3.190000076E-3
7.659692009E0,-5.489999894E-3,1.521739960E-1,-1.819399931E-2
7.664672932E0,-1.422400028E-2,1.429360062E-1,-3.217599913E-2
7.669653855E0,-2.370099910E-2,1.327359974E-1,-4.438399896E-2
7.674634525E0,-3.434700146E-2,1.197239980E-1,-5.491600186E-2
7.679615446E0,-4.573699832E-2,1.047810018E-1,-6.417199969E-2
7.684596370E0,-5.893599987E-2,8.784700185E-2,-7.240600139E-2
7.689577218E0,-7.192099839E-2,7.034199685E-2,-7.701499760E-2
7.694558139E0,-8.352100104E-2,5.403900146E-2,-7.597699761E-2
7.699538828E0,-9.510099888E-2,3.793099895E-2,-7.067699730E-2
7.704519749E0,-1.084500030E-1,2.261999995E-2,-6.299000233E-2
7.709500672E0,-1.234709993E-1,8.965999819E-3,-5.409500003E-2
7.714481590E0,-1.392550021E-1,-2.786000026E-3,-4.512700066E-2
7.719462439E0,-1.546899974E-1,-1.276300009E-2,-3.712299839E-2
7.724443360E0,-1.685079932E-1,-2.163900062E-2,-2.995399944E-2
7.729424054E0,-1.800729930E-1,-2.899499983E-2,-2.345200069E-2
7.734404975E0,-1.893890053E-1,-3.481499851E-2,-1.665499993E-2
7.739385823E0,-1.964579970E-1,-3.889700025E-2,-9.812000208E-3
7.744366740E0,-2.026239932E-1,-4.229100049E-2,-3.571999958E-3
7.749347663E0,-2.077489942E-1,-4.481400177E-2,2.696000040E-3
7.754328338E0,-2.131250054E-1,-4.593800008E-2,7.519999985E-3
7.759309259E0,-2.187670022E-1,-4.728600010E-2,1.240000036E-2
7.764290107E0,-2.232799977E-1,-4.778800160E-2,1.764499955E-2
7.769271038E0,-2.261890024E-1,-4.806299880E-2,2.260800079E-2
7.774252038E0,-2.278780043E-1,-4.840999842E-2,2.670500055E-2
7.779232655E0,-2.278880030E-1,-4.913400114E-2,2.889800072E-2
7.784213597E0,-2.261720002E-1,-4.971500114E-2,3.020500019E-2
7.789194520E0,-2.240969986E-1,-5.075300112E-2,2.914400026E-2
7.794175368E0,-2.218620032E-1,-5.356299877E-2,2.446400002E-2
7.799156284E0,-2.185419947E-1,-5.747099966E-2,1.906000078E-2
7.804137207E0,-2.137150019E-1,-6.276699901E-2,1.397099998E-2
7.809117901E0,-2.074909955E-1,-6.757999957E-2,6.963000167E-3
7.814098808E0,-1.995120049E-1,-7.162100077E-2,-2.472999971E-3
7.819079657E0,-1.933200061E-1,-7.625800371E-2,-1.353400014E-2
7.824060578E0,-1.878560036E-1,-8.028700203E-2,-2.576700039E-2
7.829041515E0,-1.824630052E-1,-8.325599879E-2,-3.536200151E-2
7.834022209E0,-1.774459928E-1,-8.556699753E-2,-4.125000164E-2
7.839003130E0,-1.746450067E-1,-8.818099648E-2,-4.576899856E-2
7.843984039E0,-1.754699945E-1,-9.008199722E-2,-5.021400005E-2
7.848964887E0,-1.783629954E-1,-9.102699906E-2,-5.332300067E-2
7.853945822E0,-1.808709949E-1,-9.197500348E-2,-5.395900086E-2
7.858926746E0,-1.830040067E-1,-9.292600304E-2,-5.172299966E-2
7.863907440E0,-1.852850020E-1,-9.342999756E-2,-4.699600115E-2
7.868888347E0,-1.884510070E-1,-9.383299947E-2,-3.919300064E-2
7.873869195E0,-1.917490065E-1,-9.511400014E-2,-2.956699952E-2
7.878850116E0,-1.970070004E-1,-9.805399925E-2,-1.905599982E-2
7.883830825E0,-2.045309991E-1,-1.023849994E-1,-1.058399957E-2
7.888811746E0,-2.142540067E-1,-1.106380001E-1,-3.615000052E-3
7.893792669E0,-2.263090014E-1,-1.222210005E-1,3.683000105E-3
7.898773517E0,-2.408069968E-1,-1.379359961E-1,1.016100030E-2
7.903754438E0,-2.546400130E-1,-1.579769999E-1,1.738600060E-2
7.908735132E0,-2.665350139E-1,-1.798840016E-1,2.457099967E-2
7.913716053E0,-2.748390138E-1,-2.029639930E-1,3.191500157E-2
7.918696976E0,-2.800779939E-1,-2.266000062E-1,3.932299837E-2
7.923677919E0,-2.808830142E-1,-2.497860044E-1,4.518499970E-2
7.928658767E0,-2.769959867E-1,-2.710160017E-1,5.172599852E-2
7.933639688E0,-2.685230076E-1,-2.886390090E-1,5.881100148E-2
7.938620621E0,-2.550410032E-1,-3.013960123E-1,6.754299998E-2
7.943601315E0,-2.371679991E-1,-3.070690036E-1,7.714600116E-2
7.948582240E0,-2.148260027E-1,-3.034990132E-1,8.693599701E-2
7.953563163E0,-1.889719963E-1,-2.904280126E-1,9.642700106E-2
7.958544012E0,-1.625420004E-1,-2.686699927E-1,1.068940014E-1
7.963524967E0,-1.379510015E-1,-2.402189970E-1,1.167989969E-1
7.968505661E0,-1.134890020E-1,-2.055830061E-1,1.267659962E-1
7.973486813E0,-9.226000309E-2,-1.647849977E-1,1.384429932E-1
7.978467521E0,-7.502000034E-2,-1.241030023E-1,1.461890042E-1
7.983448365E0,-6.276299804E-2,-8.498000354E-2,1.484909952E-1
7.988429274E0,-5.563699827E-2,-4.704299942E-2,1.472039968E-1
7.993410198E0,-5.364000052E-2,-1.394699980E-2,1.431729943E-1
7.998390892E0,-5.778599903E-2,1.354900002E-2,1.363739967E-1
8.003371721E0,-6.487099826E-2,3.663299978E-2,1.282519996E-1
8.008352644E0,-7.290100306E-2,5.631300062E-2,1.188189983E-1
8.013333567E0,-7.836999744E-2,7.103600353E-2,1.085899994E-1
8.018314246E0,-7.961399853E-2,8.108899742E-2,9.600199759E-2
8.023295168E0,-7.639499754E-2,8.702600002E-2,8.063200116E-2
8.028276091E0,-6.622499973E-2,8.960399777E-2,6.271799654E-2
8.033256949E0,-4.876599833E-2,8.898500353E-2,4.570500180E-2
8.038237870E0,-2.515700087E-2,8.925700188E-2,2.979600057E-2
8.043218793E0,3.623000113E-3,9.189900011E-2,1.400499977E-2
8.048199453E0,3.654500097E-2,9.765300155E-2,-9.600000340E-5
8.053180374E0,7.111900300E-2,1.071719974E-1,-1.354799978E-2
8.058161298E0,1.046520025E-1,1.193839982E-1,-2.756600082E-2
8.063142235E0,1.349229962E-1,1.349640042E-1,-4.203600064E-2
8.068123083E0,1.604200006E-1,1.527909935E-1,-5.763500184E-2
8.073103761E0,1.786479950E-1,1.709460020E-1,-7.113499939E-2
8.078084682E0,1.894620061E-1,1.890459955E-1,-8.314800262E-2
8.083065605E0,1.933249980E-1,2.046120018E-1,-9.429100156E-2
8.088046434E0,1.912419945E-1,2.170639932E-1,-1.044830009E-1
8.093027356E0,1.836390048E-1,2.248560041E-1,-1.127000004E-1
8.098008050E0,1.705980003E-1,2.261089981E-1,-1.200390011E-1
8.102989192E0,1.538439989E-1,2.207899988E-1,-1.257189959E-1
8.107969886E0,1.362259984E-1,2.082999945E-1,-1.286669970E-1
8.112950730E0,1.189420000E-1,1.900070012E-1,-1.286000013E-1
8.117931653E0,1.026230007E-1,1.669449955E-1,-1.266299933E-1
8.122912653E0,9.001500160E-2,1.391109973E-1,-1.234579980E-1
8.127893501E0,7.954499871E-2,1.109049991E-1,-1.172180027E-1
8.132874199E0,7.398000360E-2,8.438199759E-2,-1.073089987E-1
8.137855043E0,7.507999986E-2,5.984399840E-2,-9.516900033E-2
8.142835952E0,8.285699785E-2,3.887299821E-2,-8.060400188E-2
8.147816875E0,9.731400013E-2,2.260700054E-2,-6.409999728E-2
8.152797569E0,1.143079996E-1,1.055200025E-2,-4.604500160E-2
8.157778486E0,1.322430074E-1,2.311999910E-3,-2.642899938E-2
8.162759409E0,1.472939998E-1,-2.873999998E-3,-6.202999968E-3
8.167740332E0,1.579300016E-1,-4.788999911E-3,1.585000008E-2
8.172721170E0,1.635009944E-1,-3.703000024E-3,4.007000104E-2
8.177702091E0,1.643829942E-1,6.130000111E-4,6.519100070E-2
8.182682785E0,1.608120054E-1,7.577000186E-3,8.899199963E-2
8.187663678E0,1.540600061E-1,1.576600038E-2,1.105220020E-1
8.192644601E0,1.468710005E-1,2.391299978E-2,1.293420047E-1
8.197625450E0,1.393309981E-1,3.132500127E-2,1.442070007E-1
8.202606376E0,1.322149932E-1,3.782900050E-2,1.557800025E-1
8.207587299E0,1.251810044E-1,4.373399913E-2,1.638250053E-1
8.212567993E0,1.194259971E-1,4.724499956E-2,1.678989977E-1
8.217548904E0,1.179499999E-1,4.858599976E-2,1.705189943E-1
8.222529827E0,1.207929999E-1,4.972299933E-2,1.703169942E-1
8.227510675E0,1.261309981E-1,5.063199997E-2,1.678570062E-1
8.232491612E0,1.327620000E-1,5.078500137E-2,1.641010046E-1
8.237472535E0,1.400479972E-1,4.943799973E-2,1.593089998E-1
8.242453229E0,1.490689963E-1,4.746799916E-2,1.543260068E-1
8.247434150E0,1.593499929E-1,4.429500178E-2,1.502760053E-1
8.252414998E0,1.698729992E-1,3.856400028E-2,1.456950009E-1
8.257395919E0,1.803350002E-1,3.053200059E-2,1.394120008E-1
8.262376609E0,1.917050034E-1,2.155200019E-2,1.311939955E-1
8.267357530E0,2.029079944E-1,1.302799955E-2,1.204700023E-1
8.272338453E0,2.126359940E-1,4.484999925E-3,1.061440036E-1
8.277319409E0,2.216320038E-1,-4.199999850E-3,8.880999684E-2
8.282300332E0,2.297230065E-1,-1.331999991E-2,7.104799896E-2
8.287280949E0,2.369620055E-1,-2.195600048E-2,5.345400050E-2
8.292261851E0,2.428160012E-1,-3.122800030E-2,3.542099893E-2
8.297242775E0,2.471809983E-1,-3.934700042E-2,1.735500060E-2
8.302223698E0,2.506090105E-1,-4.692900181E-2,-1.565000042E-3
8.307204561E0,2.522650063E-1,-5.407899991E-2,-2.072500065E-2
8.312185482E0,2.534640133E-1,-6.101199985E-2,-3.937299922E-2
8.317166414E0,2.542940080E-1,-6.828299910E-2,-5.741899833E-2
8.322147108E0,2.550860047E-1,-7.461000234E-2,-7.440999895E-2
8.327128029E0,2.545700073E-1,-7.928799838E-2,-8.947200328E-2
8.332108878E0,2.526890039E-1,-8.309499919E-2,-1.031809971E-1
8.337089799E0,2.506740093E-1,-8.518300205E-2,-1.150420010E-1
8.342070722E0,2.474659979E-1,-8.659700304E-2,-1.238920018E-1
8.347051655E0,2.438780069E-1,-8.721800148E-2,-1.289290041E-1
8.352032349E0,2.395389974E-1,-8.828999847E-2,-1.309159994E-1
8.357013270E0,2.335769981E-1,-8.882799745E-2,-1.298239976E-1
8.361994127E0,2.267650068E-1,-8.919399977E-2,-1.247370020E-1
8.366975048E0,2.184419930E-1,-8.904000372E-2,-1.174110025E-1
8.371955972E0,2.091020048E-1,-8.853399754E-2,-1.085489988E-1
8.376936661E0,1.991399974E-1,-8.844900131E-2,-9.890600294E-2
8.381917582E0,1.884890050E-1,-8.825299889E-2,-8.902099729E-2
8.386898430E0,1.764570028E-1,-8.809500188E-2,-7.900500298E-2
8.391879370E0,1.628720015E-1,-8.905500174E-2,-6.984400004E-2
8.396860293E0,1.479189992E-1,-9.084500372E-2,-6.277099997E-2
8.401840988E0,1.312970072E-1,-9.240400046E-2,-5.717499927E-2
8.406821914E0,1.144210026E-1,-9.397000074E-2,-5.352900177E-2
8.411802837E0,9.606999904E-2,-9.643600136E-2,-5.188899860E-2
8.416783671E0,7.743100077E-2,-1.003879979E-1,-5.127999932E-2
8.421764592E0,6.060500070E-2,-1.054660007E-1,-5.091999844E-2
8.426745515E0,4.644099995E-2,-1.108679995E-1,-4.999300092E-2
8.431726194E0,3.332199901E-2,-1.169139966E-1,-4.867799953E-2
8.436707116E0,2.046399936E-2,-1.248150021E-1,-4.660300165E-2
8.441687964E0,1.005099993E-2,-1.317750067E-1,-4.341199994E-2
8.446668895E0,1.337000052E-3,-1.384280026E-1,-3.951799870E-2
8.451649818E0,-5.824999884E-3,-1.436219960E-1,-3.512600064E-2
8.456630741E0,-1.040599961E-2,-1.480969936E-1,-3.091000021E-2
8.461611648E0,-1.445399970E-2,-1.499540061E-1,-2.696200088E-2
8.466592342E0,-1.820399985E-2,-1.493950039E-1,-2.297399938E-2
8.471573278E0,-2.228800021E-2,-1.476729959E-1,-1.895399950E-2
8.476554127E0,-2.823700011E-2,-1.469960064E-1,-1.535500027E-2
8.481535048E0,-3.612500057E-2,-1.475400031E-1,-1.228400040E-2
8.486515732E0,-4.633000121E-2,-1.501459926E-1,-1.027399953E-2
8.491496653E0,-5.832400173E-2,-1.551679969E-1,-1.128300000E-2
8.496477576E0,-7.296399772E-2,-1.624419987E-1,-1.579399966E-2
8.501458400E0,-8.888900280E-2,-1.713249981E-1,-2.444699965E-2
8.506439321E0,-1.042469963E-1,-1.830289960E-1,-3.417799994E-2
8.511420245E0,-1.185119972E-1,-1.960310042E-1,-4.464399815E-2
8.516400944E0,-1.307539940E-1,-2.095610052E-1,-5.493300036E-2
8.521381865E0,-1.404210031E-1,-2.231940031E-1,-6.495100260E-2
8.526362713E0,-1.467490047E-1,-2.355049998E-1,-7.494500279E-2
8.531343634E0,-1.493220031E-1,-2.450989932E-1,-8.421699703E-2
8.536324557E0,-1.463370025E-1,-2.508580089E-1,-9.252899885E-2
8.541305480E0,-1.381379962E-1,-2.515709996E-1,-9.834799916E-2
8.546286399E0,-1.249390021E-1,-2.460760027E-1,-1.005129963E-1
8.551267093E0,-1.069110036E-1,-2.343370020E-1,-9.701000154E-2
8.556248014E0,-8.654999733E-2,-2.157530040E-1,-8.616399765E-2
8.561228862E0,-6.438799948E-2,-1.902240068E-1,-6.701499969E-2
8.566209554E0,-4.282699898E-2,-1.576050073E-1,-4.026899859E-2
8.571190475E0,-2.519599907E-2,-1.198920012E-1,-9.486000054E-3
8.576171624E0,-1.045200042E-2,-7.899499685E-2,2.248200029E-2
8.581152319E0,5.119999987E-4,-3.491200134E-2,5.207899958E-2
8.586133240E0,7.050000131E-3,9.994000196E-3,7.728900015E-2
8.591114070E0,6.852999795E-3,5.307000130E-2,9.598799795E-2
8.596094762E0,6.939999876E-4,9.257400036E-2,1.087130010E-1
8.601075683E0,-1.061700005E-2,1.274340004E-1,1.163389981E-1
8.606056611E0,-2.573199943E-2,1.581950039E-1,1.196309999E-1
8.611037460E0,-4.248400033E-2,1.842080057E-1,1.186890006E-1
8.616018438E0,-5.965299904E-2,2.054020017E-1,1.124449968E-1
8.620999286E0,-7.466500252E-2,2.220380008E-1,1.006819978E-1
8.625979978E0,-8.507800102E-2,2.354740053E-1,8.558899909E-2
8.630960899E0,-9.021700174E-2,2.464150041E-1,6.872700155E-2
8.635941747E0,-9.094399959E-2,2.553589940E-1,5.255499855E-2
8.640922668E0,-8.699300140E-2,2.645559907E-1,3.834100068E-2
8.645903587E0,-7.853300124E-2,2.736389935E-1,2.639500052E-2
8.650884281E0,-6.812500209E-2,2.829479873E-1,1.728500053E-2
8.655865202E0,-5.558500066E-2,2.931399941E-1,9.677999653E-3
8.660846140E0,-4.325599968E-2,3.029539883E-1,2.571000019E-3
8.665826988E0,-3.249799833E-2,3.132329881E-1,-4.391000140E-3
8.670807909E0,-2.465800010E-2,3.233059943E-1,-1.059900038E-2
8.675788837E0,-1.921500079E-2,3.314279914E-1,-1.582200080E-2
8.680769532E0,-1.626499929E-2,3.379270136E-1,-1.904200017E-2
8.685750453E0,-1.709800027E-2,3.415279984E-1,-2.161799930E-2
8.690731390E0,-2.242499962E-2,3.423030078E-1,-2.444499917E-2
8.695712238E0,-3.319900110E-2,3.397949934E-1,-2.894099988E-2
8.700693159E0,-4.884099960E-2,3.338299990E-1,-3.585800156E-2
8.705673848E0,-6.805799901E-2,3.238219917E-1,-4.464799911E-2
8.710654770E0,-8.892299980E-2,3.088569939E-1,-5.614899844E-2
8.715635693E0,-1.080410033E-1,2.890320122E-1,-6.962700188E-2
8.720616531E0,-1.232699975E-1,2.650640011E-1,-8.296299726E-2
8.725597452E0,-1.352639943E-1,2.384829968E-1,-9.497299790E-2
8.730578146E0,-1.405799985E-1,2.100680023E-1,-1.039429978E-1
8.735559067E0,-1.390230060E-1,1.818449944E-1,-1.100969985E-1
8.740539990E0,-1.296049953E-1,1.550530046E-1,-1.118279994E-1
8.745520825E0,-1.137719974E-1,1.296609938E-1,-1.084240004E-1
8.750501746E0,-9.159299731E-2,1.061540022E-1,-9.887000173E-2
8.755482669E0,-6.599599868E-2,8.447600156E-2,-8.433099836E-2
8.760463592E0,-3.824000061E-2,6.406900287E-2,-6.727299839E-2
8.765444286E0,-9.204000235E-3,4.557299986E-2,-4.915799946E-2
8.770425202E0,1.868500002E-2,3.064800054E-2,-3.000500053E-2
8.775406050E0,4.540200159E-2,1.972999983E-2,-1.206499990E-2
8.780386971E0,7.003200054E-2,1.214499958E-2,4.201999865E-3
8.785367676E0,9.228999913E-2,7.801000029E-3,1.727999933E-2
8.790348597E0,1.114370003E-1,5.601999816E-3,2.812499925E-2
8.795329515E0,1.275199950E-1,5.758000072E-3,3.699300066E-2
8.800310363E0,1.413449943E-1,8.117999882E-3,4.498099908E-2
8.805291288E0,1.520210057E-1,1.236800011E-2,5.232900009E-2
8.810272211E0,1.597329974E-1,1.908800006E-2,6.076100096E-2
8.815252906E0,1.638589948E-1,2.676199935E-2,7.159300148E-2
8.820233827E0,1.642870009E-1,3.456300125E-2,8.319599926E-2
8.825214750E0,1.608619988E-1,4.418599978E-2,9.407400340E-2
8.830195598E0,1.529510021E-1,5.437500030E-2,1.018830016E-1
8.835176534E0,1.423439980E-1,6.527099758E-2,1.067890003E-1
8.840157457E0,1.305390000E-1,7.481800020E-2,1.080960035E-1
8.845138136E0,1.191150025E-1,8.188100159E-2,1.074820012E-1
8.850119058E0,1.082530022E-1,8.650899678E-2,1.040539965E-1
8.855099981E0,9.866899997E-2,8.925499767E-2,9.773600101E-2
8.860080829E0,9.055499732E-2,8.998200297E-2,8.795700222E-2
8.865061750E0,8.253099769E-2,8.813899755E-2,7.413200289E-2
8.870042444E0,7.464399934E-2,8.487699926E-2,5.726300180E-2
8.875023365E0,6.494999677E-2,8.175600320E-2,3.833999857E-2
8.880004288E0,5.355700105E-2,7.753500342E-2,1.860499941E-2
8.884985211E0,4.054699838E-2,7.237099856E-2,7.099999930E-4
8.889966056E0,2.592499927E-2,6.670700014E-2,-1.430699974E-2
8.894946748E0,1.116300002E-2,6.173000112E-2,-2.727900073E-2
8.899927900E0,-5.752999801E-3,5.538500100E-2,-4.072099924E-2
8.904908579E0,-2.279799990E-2,4.928800091E-2,-5.422100052E-2
8.909889500E0,-3.937200084E-2,4.409199953E-2,-6.540299952E-2
8.914870348E0,-5.658899993E-2,3.935899958E-2,-7.230599970E-2
8.919851274E0,-7.463999838E-2,3.448700160E-2,-7.578500360E-2
8.924832198E0,-9.361399710E-2,2.867499925E-2,-7.473800331E-2
8.929813121E0,-1.127509996E-1,2.255699970E-2,-6.917499751E-2
8.934793829E0,-1.311260015E-1,1.715099998E-2,-6.000100076E-2
8.939774673E0,-1.480599940E-1,1.193400007E-2,-4.787300155E-2
8.944755596E0,-1.639699936E-1,6.674000062E-3,-3.376499936E-2
8.949736510E0,-1.785479933E-1,2.082000021E-3,-1.903099939E-2
8.954717205E0,-1.900839955E-1,-2.483000048E-3,-3.733000020E-3
8.959698126E0,-1.989299953E-1,-6.647000089E-3,9.909999557E-3
8.964679063E0,-2.047940046E-1,-1.080899965E-2,2.025000006E-2
8.969659911E0,-2.064200044E-1,-1.535100024E-2,2.801099978E-2
8.974640832E0,-2.044010013E-1,-2.051700093E-2,3.492200002E-2
8.979621726E0,-1.981880069E-1,-2.611799911E-2,4.217499867E-2
8.984602420E0,-1.895149946E-1,-3.302399814E-2,5.046800151E-2
8.989583342E0,-1.806609929E-1,-4.040100053E-2,5.946400017E-2
8.994564265E0,-1.726209968E-1,-4.764400050E-2,6.761799753E-2
8.999545113E0,-1.645289958E-1,-5.496999994E-2,7.356700301E-2
9.004526034E0,-1.577360034E-1,-6.236299872E-2,7.653900236E-2
9.009506723E0,-1.531320065E-1,-6.968200207E-2,7.687299699E-2
9.014487644E0,-1.505980045E-1,-7.700700313E-2,7.516100258E-2
9.019468567E0,-1.496549994E-1,-8.369600028E-2,7.193999738E-2
9.024449416E0,-1.485179961E-1,-9.025999904E-2,6.546899676E-2
9.029430337E0,-1.479279995E-1,-9.576699883E-2,5.575900152E-2
9.034411260E0,-1.487330049E-1,-1.002359986E-1,4.256400093E-2
9.039391940E0,-1.495680064E-1,-1.031740010E-1,2.651700005E-2
9.044372861E0,-1.501079947E-1,-1.056509987E-1,1.080700010E-2
9.049353709E0,-1.483709961E-1,-1.061000004E-1,-3.037000075E-3
9.054334721E0,-1.464049965E-1,-1.045439988E-1,-1.551800035E-2
9.059315570E0,-1.462370008E-1,-1.008739993E-1,-2.728999965E-2
9.064296462E0,-1.471250057E-1,-9.493599832E-2,-3.996400163E-2
9.069277156E0,-1.484729946E-1,-8.609999716E-2,-5.169900134E-2
9.074258077E0,-1.501259953E-1,-7.552000135E-2,-6.198199838E-2
9.079239010E0,-1.529169977E-1,-6.347999722E-2,-7.071799785E-2
9.084219858E0,-1.569380015E-1,-5.231700093E-2,-7.783500105E-2
9.089200779E0,-1.621990055E-1,-4.159799963E-2,-8.288999647E-2
9.094181716E0,-1.685130000E-1,-3.136299923E-2,-8.661500365E-2
9.099162411E0,-1.750960052E-1,-2.291899920E-2,-8.985000104E-2
9.104143332E0,-1.829160005E-1,-1.565399952E-2,-9.218300134E-2
9.109124176E0,-1.899390072E-1,-1.073499955E-2,-9.360200167E-2
9.114105097E0,-1.962600052E-1,-6.990999915E-3,-9.320499748E-2
9.119086020E0,-2.036799937E-1,-3.996999934E-3,-9.244100004E-2
9.124066724E0,-2.130610049E-1,-4.346000031E-3,-9.214799851E-2
9.129047645E0,-2.243980020E-1,-8.647999726E-3,-9.191499650E-2
9.134028493E0,-2.378100008E-1,-1.604899950E-2,-9.319599718E-2
9.139009429E0,-2.525610030E-1,-2.669399977E-2,-9.543400258E-2
9.143990352E0,-2.654460073E-1,-4.069999978E-2,-9.767200053E-2
9.148971046E0,-2.772240043E-1,-5.988600105E-2,-9.831199795E-2
9.153951967E0,-2.847299874E-1,-8.347100019E-2,-9.888900071E-2
9.158932890E0,-2.858209908E-1,-1.089790016E-1,-9.832800180E-2
9.163913739E0,-2.809459865E-1,-1.350660026E-1,-9.647600353E-2
9.168894660E0,-2.736620009E-1,-1.607259959E-1,-9.416300058E-2
9.173875583E0,-2.626000047E-1,-1.843169928E-1,-8.803600073E-2
9.178856277E0,-2.453870028E-1,-2.060630023E-1,-7.649400085E-2
9.183837198E0,-2.201240063E-1,-2.242259979E-1,-5.972699821E-2
9.188818046E0,-1.875910014E-1,-2.385009974E-1,-3.877900168E-2
9.193798981E0,-1.503919959E-1,-2.465379983E-1,-1.627499983E-2
9.198779676E0,-1.116300002E-1,-2.470930070E-1,8.303999901E-3
9.203760842E0,-7.327999920E-2,-2.429410070E-1,3.677799925E-2
9.208741536E0,-3.666000068E-2,-2.349590063E-1,7.034700364E-2
9.213722457E0,-5.640999880E-3,-2.230180055E-1,1.083120033E-1
9.218703371E0,1.776600070E-2,-2.077829987E-1,1.444929987E-1
9.223684219E0,3.164299950E-2,-1.899780035E-1,1.739490032E-1
9.228665140E0,3.795700148E-2,-1.712629944E-1,1.940020025E-1
9.233646053E0,3.719700128E-2,-1.515029967E-1,2.050649971E-1
9.238626748E0,3.077800013E-2,-1.316729933E-1,2.082969993E-1
9.243607592E0,2.111200057E-2,-1.123609990E-1,2.067960054E-1
9.248588534E0,1.005799975E-2,-9.301699698E-2,2.027859986E-1
9.253569457E0,6.500000018E-5,-7.486099750E-2,1.956200004E-1
9.258550380E0,-8.884999901E-3,-5.790999904E-2,1.854819953E-1
9.263531075E0,-1.572600007E-2,-4.383800179E-2,1.708589941E-1
9.268511996E0,-1.704899967E-2,-3.277099878E-2,1.545639932E-1
9.273492825E0,-1.331899967E-2,-2.385500073E-2,1.371220052E-1
9.278473746E0,-4.143999889E-3,-1.665700041E-2,1.178700030E-1
9.283454674E0,1.002799999E-2,-9.558999911E-3,9.831800312E-2
9.288435368E0,2.826100029E-2,-9.420000133E-4,7.967600226E-2
9.293416289E0,4.750899971E-2,1.035400014E-2,6.163400039E-2
9.298397221E0,6.590799987E-2,2.654200047E-2,4.336899891E-2
9.303378145E0,8.043500036E-2,4.753899947E-2,2.505500056E-2
9.308358993E0,9.058900177E-2,7.091099769E-2,6.508000195E-3
9.313339909E0,9.615699947E-2,9.663199633E-2,-1.254099980E-2
9.318320603E0,1.009310037E-1,1.224450022E-1,-3.091000021E-2
9.323301524E0,1.032809988E-1,1.465419978E-1,-4.892599955E-2
9.328282447E0,1.008849964E-1,1.679909974E-1,-6.735999882E-2
9.333263295E0,9.392499924E-2,1.848299950E-1,-8.574700356E-2
9.338244217E0,8.177900314E-2,1.973440051E-1,-1.034569964E-1
9.343225136E0,6.587000191E-2,2.036519945E-1,-1.214559972E-1
9.348206059E0,4.848099872E-2,2.040379941E-1,-1.398130059E-1
9.353186753E0,3.176299855E-2,1.986639947E-1,-1.598619968E-1
9.358167582E0,1.698300056E-2,1.890020072E-1,-1.815200001E-1
9.363148505E0,7.519999985E-3,1.753350049E-1,-2.031870037E-1
9.368129428E0,5.952000152E-3,1.566759944E-1,-2.182870060E-1
9.373110356E0,1.293299999E-2,1.344069988E-1,-2.238540053E-1
9.378091051E0,2.732999995E-2,1.102700010E-1,-2.184759974E-1
9.383072203E0,4.925400019E-2,8.540699631E-2,-2.033829987E-1
9.388052820E0,7.585900277E-2,6.104699895E-2,-1.826259941E-1
9.393033741E0,1.053149998E-1,3.900599852E-2,-1.593170017E-1
9.398014678E0,1.359030008E-1,1.805300079E-2,-1.346040070E-1
9.402995601E0,1.650979966E-1,-7.520000217E-4,-1.079389974E-1
9.407976296E0,1.917739958E-1,-1.700999960E-2,-7.996600121E-2
9.412957203E0,2.141360044E-1,-2.956900001E-2,-5.145899951E-2
9.417938051E0,2.305569947E-1,-3.846799955E-2,-2.412099950E-2
9.422919034E0,2.429289967E-1,-4.322300106E-2,1.643999945E-3
9.427899882E0,2.521870136E-1,-4.326200113E-2,2.557599917E-2
9.432880574E0,2.588919997E-1,-4.022699967E-2,4.765899852E-2
9.437861495E0,2.645100057E-1,-3.524599969E-2,6.743200123E-2
9.442842419E0,2.696430087E-1,-2.921899967E-2,8.542100340E-2
9.447823337E0,2.757290006E-1,-2.343799919E-2,1.029409990E-1
9.452804185E0,2.831510007E-1,-1.926200092E-2,1.199579984E-1
9.457785106E0,2.901119888E-1,-1.515400037E-2,1.370829940E-1
9.462765772E0,2.977229953E-1,-1.212400012E-2,1.539749950E-1
9.467746693E0,3.054710031E-1,-9.890000336E-3,1.692119986E-1
9.472727541E0,3.123709857E-1,-8.806000464E-3,1.833180040E-1
9.477708463E0,3.178279996E-1,-6.405999884E-3,1.957509965E-1
9.482689386E0,3.211730123E-1,-2.123000100E-3,2.064639926E-1
9.487670313E0,3.209750056E-1,1.811000053E-3,2.139489949E-1
9.492651236E0,3.181990087E-1,5.981999915E-3,2.173829973E-1
9.497631930E0,3.129130006E-1,9.700999595E-3,2.165549994E-1
9.502612880E0,3.063229918E-1,1.401800010E-2,2.108490020E-1
9.507593728E0,2.995820045E-1,1.804500073E-2,1.990060061E-1
9.512574640E0,2.929129899E-1,2.126800083E-2,1.834020019E-1
9.517555563E0,2.871299982E-1,2.346299961E-2,1.621080041E-1
9.522536257E0,2.818019986E-1,2.521800064E-2,1.369650066E-1
9.527517178E0,2.756240070E-1,2.675100043E-2,1.091250032E-1
9.532498026E0,2.677449882E-1,2.842400037E-2,7.919099927E-2
9.537478947E0,2.601000071E-1,2.950700000E-2,4.924299940E-2
9.542459647E0,2.514309883E-1,2.916000038E-2,1.992199942E-2
9.547440798E0,2.418140024E-1,2.824399993E-2,-7.749000099E-3
9.552421493E0,2.316309959E-1,2.751100063E-2,-3.429099917E-2
9.557402414E0,2.213129997E-1,2.679700032E-2,-5.935499817E-2
9.562383262E0,2.126130015E-1,2.628899924E-2,-8.061999828E-2
9.567364197E0,2.053319961E-1,2.588400058E-2,-9.775900096E-2
9.572344891E0,1.986149997E-1,2.530300058E-2,-1.102579981E-1
9.577325813E0,1.911330074E-1,2.426500060E-2,-1.172560006E-1
9.582306736E0,1.834249943E-1,2.260399982E-2,-1.205559969E-1
9.587287584E0,1.745759994E-1,2.038200013E-2,-1.205779985E-1
9.592268505E0,1.653269976E-1,1.745500043E-2,-1.178499982E-1
9.597249414E0,1.551820040E-1,1.460199989E-2,-1.134340018E-1
9.602230337E0,1.450870037E-1,1.231999975E-2,-1.066450030E-1
9.607211031E0,1.354780048E-1,9.664000012E-3,-9.961699694E-2
9.612191952E0,1.254300028E-1,7.412000094E-3,-9.246200323E-2
9.617172801E0,1.152200028E-1,5.291000009E-3,-8.418499678E-2
9.622153722E0,1.044339985E-1,3.211000003E-3,-7.705300301E-2
9.627134645E0,9.408099949E-2,-9.410000057E-4,-7.006999850E-2
9.632115339E0,8.362899721E-2,-7.903999649E-3,-6.365299970E-2
9.637096260E0,7.462800294E-2,-1.621899940E-2,-5.788199976E-2
9.642077197E0,6.608600169E-2,-2.606300078E-2,-5.115700141E-2
9.647058120E0,5.759400129E-2,-3.764199838E-2,-4.481999949E-2
9.652038969E0,4.971399903E-2,-5.016100034E-2,-3.764399886E-2
9.657019661E0,4.245299846E-2,-6.330499798E-2,-2.934899926E-2
9.662000582E0,3.594199941E-2,-7.669299841E-2,-2.137199976E-2
9.666981510E0,2.894400060E-2,-8.931799978E-2,-1.262800023E-2
9.671962433E0,2.168699913E-2,-1.011419967E-1,-3.206999972E-3
9.676943295E0,1.492400002E-2,-1.116869971E-1,6.626999937E-3
9.681924216E0,7.470000070E-3,-1.212730035E-1,1.653799973E-2
9.686905139E0,-2.499999937E-5,-1.297709942E-1,2.670199983E-2
9.691885849E0,-7.426000200E-3,-1.370790005E-1,3.764199838E-2
9.696866693E0,-1.449599955E-2,-1.419689953E-1,4.792600125E-2
9.701847616E0,-2.213099971E-2,-1.452420056E-1,5.749500170E-2
9.706828539E0,-2.970799990E-2,-1.456899941E-1,6.744799763E-2
9.711809462E0,-3.711000085E-2,-1.440699995E-1,7.598499954E-2
9.716790157E0,-4.558499902E-2,-1.412409991E-1,8.287800103E-2
9.721771059E0,-5.453599989E-2,-1.385309994E-1,8.647800237E-2
9.726751982E0,-6.367599964E-2,-1.364270002E-1,8.629299700E-2
9.731732830E0,-7.405299693E-2,-1.353819966E-1,8.308000118E-2
9.736713755E0,-8.535499871E-2,-1.367810071E-1,7.540199906E-2
9.741694678E0,-9.912099689E-2,-1.420489997E-1,6.313099712E-2
9.746675372E0,-1.154979989E-1,-1.502870023E-1,4.635500163E-2
9.751656284E0,-1.329399943E-1,-1.612180024E-1,2.635799907E-2
9.756637438E0,-1.512989998E-1,-1.744959950E-1,4.805000033E-3
9.761618133E0,-1.693059951E-1,-1.889490038E-1,-1.613800041E-2
9.766599054E0,-1.863290071E-1,-2.025550008E-1,-3.615000099E-2
9.771579902E0,-2.001399994E-1,-2.151000053E-1,-5.420299992E-2
9.776560823E0,-2.122740000E-1,-2.248159945E-1,-7.221999764E-2
9.781541746E0,-2.217890024E-1,-2.305459976E-1,-8.976300061E-2
9.786522440E0,-2.281879932E-1,-2.315540016E-1,-1.060950011E-1
9.791503270E0,-2.308170050E-1,-2.271900028E-1,-1.208209991E-1
9.796484193E0,-2.288980037E-1,-2.178879976E-1,-1.318989992E-1
9.801465116E0,-2.225749940E-1,-2.038069963E-1,-1.387190074E-1
9.806445796E0,-2.108760029E-1,-1.841149926E-1,-1.389389932E-1
9.811426717E0,-1.957720071E-1,-1.583369970E-1,-1.319649965E-1
9.816407640E0,-1.800480038E-1,-1.262860000E-1,-1.170639992E-1
9.821388502E0,-1.642140001E-1,-9.017500281E-2,-9.575799853E-2
9.826369423E0,-1.479710042E-1,-5.279500037E-2,-6.996600330E-2
9.831350118E0,-1.319759935E-1,-1.503800042E-2,-4.173500091E-2
9.836331025E0,-1.191150025E-1,2.250999957E-2,-1.544800028E-2
9.841311948E0,-1.101680025E-1,5.739999935E-2,5.772999953E-3
9.846292871E0,-1.051179990E-1,8.876000345E-2,2.153700031E-2
9.851273794E0,-1.021620035E-1,1.174229980E-1,3.325499967E-2
9.856254642E0,-1.014579982E-1,1.424610019E-1,4.109700024E-2
9.861235563E0,-1.026830003E-1,1.631300002E-1,4.545500129E-2
9.866216258E0,-1.051940024E-1,1.802400053E-1,4.606800154E-2
9.871197179E0,-1.080330014E-1,1.948850006E-1,4.355800152E-2
9.876178027E0,-1.101759970E-1,2.072400004E-1,3.791100159E-2
9.881159053E0,-1.102320030E-1,2.176350057E-1,2.898800001E-2
9.886139978E0,-1.082969978E-1,2.283120006E-1,1.986999996E-2
9.891120824E0,-1.033649966E-1,2.398539931E-1,1.053300034E-2
9.896101503E0,-9.501399845E-2,2.510049939E-1,2.105999971E-3
9.901082424E0,-8.520600200E-2,2.620959878E-1,-5.657000002E-3
9.906063272E0,-7.339999825E-2,2.724370062E-1,-1.212299988E-2
9.911044178E0,-5.986899883E-2,2.810289860E-1,-1.863699965E-2
9.916024872E0,-4.636200145E-2,2.870090008E-1,-2.550699934E-2
