"Time (s)","Linear Acceleration x (m/s^2)","Linear Acceleration y (m/s^2)","Linear Acceleration z (m/s^2)"
7.154783400E-2,-2.797961235E-3,-2.848067284E-1,-2.757010460E-1
8.163295900E-2,-4.014708847E-2,-6.236553192E-2,-9.012098312E-1
9.228652100E-2,5.014203489E-2,-7.203960419E-2,-7.485399246E-1
1.019913020E-1,2.406899631E-1,-3.055706024E-1,-3.355035782E-1
1.118591930E-1,2.852235138E-1,-3.859958649E-1,2.688217163E-2
1.218416380E-1,2.496460080E-1,-8.619880676E-2,4.391050339E-2
1.320603610E-1,1.490895450E-1,-9.218406677E-2,2.665710449E-1
1.420677220E-1,3.656207025E-2,-1.640100479E-1,3.252291679E-1
1.519189030E-1,-8.195091784E-2,-2.071056366E-1,3.300175667E-1
1.619464930E-1,-2.303914279E-1,-2.106971741E-1,2.701625824E-1
1.718477880E-1,-2.791343331E-1,-1.674404144E-1,2.830681801E-1
1.817759360E-1,-2.511016130E-1,-1.604080200E-1,1.941318512E-1
1.917675100E-1,-1.801961809E-1,-1.503210068E-1,1.431446075E-1
2.017092970E-1,-1.225022003E-1,-1.130657196E-1,1.393637657E-1
2.117106900E-1,-7.672288269E-2,-1.180548668E-1,8.802032471E-2
2.216993870E-1,-1.295176335E-2,-1.315908432E-1,6.558561325E-2
2.317052350E-1,4.052103311E-2,-1.299018860E-1,-2.274036407E-3
2.417661590E-1,2.443520725E-2,-1.190295219E-1,-7.171106339E-2
2.517691210E-1,2.274009399E-2,-1.018605232E-1,-8.008432388E-2
2.617266020E-1,6.572394073E-2,-9.562683105E-2,-9.946393967E-2
2.717678430E-1,2.851319686E-2,-7.192897797E-2,-1.053748131E-1
2.817499630E-1,-5.914353207E-2,-1.090288162E-2,-4.765367508E-2
2.917270230E-1,-7.628631592E-2,-1.322698593E-2,5.890464783E-2
3.017470530E-1,-4.438749701E-2,-1.871252060E-2,1.191573143E-1
3.117235680E-1,-2.334581688E-3,-2.270269394E-2,7.867813110E-5
3.217493260E-1,6.147183105E-2,-6.753158569E-2,-1.170182228E-1
3.318172050E-1,6.619469076E-2,-5.353975296E-2,-1.580524445E-1
3.417551440E-1,8.370645344E-3,-2.142190933E-2,-1.936240196E-1
3.517686140E-1,-7.232442498E-2,-2.875757217E-2,-2.137656212E-1
3.620598490E-1,-1.758191586E-1,-4.166555405E-2,-2.199783325E-1
3.718644660E-1,-2.510675788E-1,-4.906463623E-2,-2.412157059E-1
3.818262750E-1,-2.508431077E-1,-8.152675629E-2,-2.575273514E-1
3.918446790E-1,-1.601749361E-1,-9.832286835E-2,-1.576728821E-1
4.017833810E-1,-5.968618765E-2,-1.327719688E-1,-7.350015640E-2
4.117537320E-1,5.950769037E-2,-1.943464279E-1,-2.845764160E-3
4.218559080E-1,1.256759316E-1,-2.130703926E-1,6.927633286E-2
4.318429960E-1,1.543475389E-1,-2.128906250E-1,6.977128983E-2
4.419785400E-1,1.368568242E-1,-1.858940125E-1,1.233100891E-2
4.518753120E-1,1.372197270E-1,-1.538996696E-1,-1.014914513E-1
4.617821980E-1,1.381651163E-1,-1.577844620E-1,-1.672749519E-1
4.718761410E-1,1.056479514E-1,-1.856069565E-1,-1.992554665E-1
4.818551120E-1,7.041063905E-2,-1.824231148E-1,-1.469340324E-1
4.917895980E-1,8.871361613E-2,-1.966228485E-1,-4.218959808E-2
5.017323410E-1,1.410365105E-1,-2.572493553E-1,1.835083961E-1
5.117572120E-1,2.036395371E-1,-2.865819931E-1,3.972396851E-1
5.217301480E-1,2.268976718E-1,-3.084416389E-1,5.844211578E-1
5.317676160E-1,2.082117349E-1,-3.319077492E-1,6.295785904E-1
5.417443500E-1,1.073989645E-1,-2.895855904E-1,6.087894440E-1
5.517392170E-1,2.286139131E-2,-2.872714996E-1,5.212578773E-1
5.618826500E-1,-4.689179361E-2,-2.651519775E-1,3.370876312E-1
5.718118670E-1,-1.426348984E-1,-2.124948502E-1,2.345914841E-1
5.817759750E-1,-2.508154511E-1,-1.541428566E-1,6.088876724E-2
5.917490290E-1,-2.522822618E-1,-1.652560234E-1,-1.231861115E-2
6.017630560E-1,-2.680075765E-1,-1.151027679E-1,-1.253733635E-1
6.118060700E-1,-2.342054248E-1,-9.550619125E-2,-1.394119263E-1
6.217645770E-1,-1.973783672E-1,-9.540176392E-2,-1.324610710E-1
6.317693300E-1,-1.757539809E-1,-9.786701202E-2,-8.357620239E-2
6.418222070E-1,-1.322849989E-1,-8.168745041E-2,-1.744604111E-2
6.517776450E-1,-1.031964719E-1,-9.033918381E-2,-3.192710876E-2
6.617503640E-1,-1.122198701E-1,-7.726478577E-2,-7.796382904E-2
6.719102240E-1,-1.521143913E-1,-4.219865799E-2,-1.690373421E-1
6.818121540E-1,-1.828469634E-1,-2.422094345E-2,-1.821684837E-1
6.917601190E-1,-2.723096013E-1,8.579254150E-3,-1.658043861E-1
7.017281010E-1,-3.348985612E-1,3.702068329E-2,-1.210174561E-1
7.117195920E-1,-3.000959456E-1,3.875780106E-2,3.074216843E-2
7.217863380E-1,-2.034134865E-1,1.957654953E-2,6.806802750E-2
7.317837110E-1,-9.752359986E-2,-5.940437317E-2,9.311962128E-2
7.424523970E-1,-3.984063864E-2,-9.222936630E-2,5.383586884E-2
7.520972400E-1,-4.664966464E-2,-1.177968979E-1,7.123470306E-3
7.619861620E-1,-9.220468998E-2,-1.371006966E-1,-6.864404678E-2
7.718631230E-1,-1.485825479E-1,-1.162672043E-1,-1.150832176E-1
7.818031030E-1,-1.867018640E-1,-7.385349274E-2,-1.614637375E-1
7.918345930E-1,-1.509475112E-1,-7.519865036E-2,-1.687951088E-1
8.023598380E-1,-7.752931118E-2,-7.700634003E-2,-1.409211159E-1
8.120449610E-1,-1.296192408E-2,-6.683444977E-2,-7.589197159E-2
8.219450220E-1,1.797857881E-2,-4.915714264E-2,-6.267070770E-3
8.318245530E-1,4.291269183E-2,-9.102058411E-2,1.350760460E-1
8.418743180E-1,5.028867722E-2,-1.011519432E-1,2.580008507E-1
8.517882010E-1,5.463254452E-2,-8.545494080E-2,2.521061897E-1
8.617696420E-1,6.731617451E-2,-9.292411804E-2,1.853027344E-1
8.717323630E-1,7.140263915E-2,-7.053327560E-2,9.058761597E-2
8.822777230E-1,4.503601789E-2,-5.982255936E-2,-3.834486008E-2
8.920219030E-1,2.592128515E-2,-6.945896149E-2,-1.400218010E-1
9.019279930E-1,-5.282968283E-3,-8.744525909E-2,-2.070736885E-1
9.118160380E-1,-2.599617839E-2,-1.057538986E-1,-2.449879646E-1
9.217735610E-1,6.893217564E-3,-1.220960617E-1,-3.012728691E-1
9.317868220E-1,4.022321105E-2,-8.129930496E-2,-2.767777443E-1
9.422489530E-1,1.226786673E-1,-1.636028290E-2,-2.642874718E-1
9.520015180E-1,1.912788153E-1,1.429605484E-2,-2.605433464E-1
9.619003010E-1,1.697762907E-1,6.301546097E-2,-3.288698196E-1
9.718071920E-1,5.581623316E-2,1.279549599E-1,-3.753523827E-1
9.818141380E-1,-1.168296635E-1,2.003641129E-1,-4.277720451E-1
9.917826110E-1,-2.478998303E-1,2.531523705E-1,-4.485960007E-1
1.001750847E0,-3.422787189E-1,2.401895523E-1,-4.264464378E-1
1.011844465E0,-3.479619622E-1,1.489090919E-1,-2.561416626E-1
1.021829274E0,-3.228123188E-1,9.372997284E-2,-1.618366241E-1
1.031832179E0,-2.182075381E-1,1.172780991E-2,-1.798934937E-1
1.041876631E0,-9.518903494E-2,-6.969261169E-2,-2.012677193E-1
1.051817357E0,-2.385979891E-2,-1.127543449E-1,-2.678456306E-1
1.061766220E0,4.972374439E-2,-1.275448799E-1,-3.182621002E-1
1.071743652E0,1.083980799E-1,-1.009454727E-1,-3.239026070E-1
1.081716868E0,2.252427340E-1,-6.817531586E-2,-3.373837471E-1
1.091740476E0,4.301756322E-1,-1.251487732E-1,-3.304991722E-1
1.101868280E0,6.220003963E-1,-1.489815712E-1,-2.562794685E-1
1.111861182E0,7.297463417E-1,-1.469345093E-1,-2.298541069E-1
1.121816633E0,8.947920799E-1,-2.072749138E-1,-2.888498306E-1
1.131808858E0,9.437383413E-1,-2.056674957E-1,-3.827261925E-1
1.141788971E0,9.401937723E-1,-1.434135437E-1,-5.029788017E-1
1.151742027E0,9.241548777E-1,-1.168537140E-2,-5.505747795E-1
1.162254555E0,8.397285938E-1,1.550230980E-1,-6.142411232E-1
1.171985819E0,7.047404051E-1,3.328094482E-1,-5.379004478E-1
1.183526951E0,6.199537516E-1,4.908332825E-1,-4.422154427E-1
1.192639517E0,6.149898767E-1,6.137046814E-1,-4.148030281E-1
1.202181800E0,6.835973263E-1,6.775689125E-1,-3.983993530E-1
1.211991442E0,8.507614732E-1,7.134819031E-1,-4.226884842E-1
1.221857763E0,1.055566430E0,7.201566696E-1,-4.696989059E-1
1.231999923E0,1.212808251E0,6.636853218E-1,-6.120219231E-1
1.241992003E0,1.239520788E0,5.652270317E-1,-6.284160614E-1
1.251879543E0,1.205400705E0,4.733858109E-1,-6.378641129E-1
1.261807813E0,1.111045718E0,3.426389694E-1,-5.466403961E-1
1.271804448E0,1.020550489E0,2.345252037E-1,-5.057954788E-1
1.281785766E0,8.963062763E-1,1.224269867E-1,-4.096345901E-1
1.291787925E0,7.409263253E-1,9.545040131E-2,-1.975378990E-1
1.301760004E0,5.427961349E-1,1.814117432E-1,8.567190170E-2
1.313041544E0,4.168959856E-1,3.143568039E-1,3.366208076E-1
1.322393814E0,4.329333603E-1,3.292870522E-1,4.329171181E-1
1.332071449E0,5.458439589E-1,2.867898941E-1,4.294533730E-1
1.341892766E0,6.196813583E-1,2.601242065E-1,4.297757149E-1
1.351833425E0,6.302797198E-1,2.913093567E-1,2.801594734E-1
1.361778754E0,4.045759439E-1,2.347183228E-1,1.013712883E-1
1.371778419E0,3.727515340E-1,2.659835815E-1,-3.205161095E-1
1.381847251E0,3.111208379E-1,2.899408340E-1,-7.831873894E-1
1.391788667E0,2.167733759E-1,3.533744812E-1,-1.140275955E0
1.401849875E0,1.270589083E-1,4.178729057E-1,-1.395683289E0
1.411903479E0,7.410489023E-2,4.220547676E-1,-1.543758869E0
1.421828781E0,3.032112308E-2,3.605866432E-1,-1.504482269E0
1.431839432E0,-9.476562031E-3,3.228840828E-1,-1.368347645E0
1.442362758E0,-4.146020859E-2,2.970662117E-1,-1.244355679E0
1.452023421E0,-6.637831032E-2,2.744588852E-1,-1.089122295E0
1.461924252E0,-7.466050237E-2,2.951297760E-1,-9.210057259E-1
1.471915168E0,-1.129252911E-1,3.486294746E-1,-8.237991333E-1
1.481830626E0,-1.778158695E-1,4.246602058E-1,-6.891551018E-1
1.492045355E0,-2.306614816E-1,5.223975182E-1,-5.547351837E-1
1.501950219E0,-1.955558062E-1,6.022391319E-1,-4.085564613E-1
1.511845651E0,-4.938562959E-2,6.474390030E-1,-3.308858871E-1
1.521781867E0,1.531243473E-1,3.911604881E-1,1.179885864E-2
1.531750475E0,3.113225996E-1,2.526435852E-1,2.903919220E-1
1.542441279E0,4.126255512E-1,2.250113487E-1,4.118556976E-1
1.552088181E0,4.476886094E-1,2.070045471E-1,5.939502716E-1
1.562003632E0,3.586865067E-1,2.470602989E-1,8.265919685E-1
1.572476858E0,1.988682300E-1,3.396239281E-1,1.043813229E0
1.582141471E0,4.248875007E-2,3.751735687E-1,1.114176750E0
1.592048277E0,-8.482128382E-2,4.132595062E-1,1.151647091E0
1.602054180E0,-1.862178743E-1,4.729499817E-1,1.113268375E0
1.611898132E0,-2.440849543E-1,5.324621201E-1,1.036549568E0
1.623741608E0,-2.647621036E-1,5.593652725E-1,1.015176296E0
1.632844346E0,-2.507752180E-1,5.524969101E-1,1.021709442E0
1.642296715E0,-2.049964964E-1,5.338187218E-1,1.053472996E0
1.652020399E0,-1.586006582E-1,5.314941406E-1,1.056356430E0
1.662034741E0,-2.651075721E-1,5.444951057E-1,1.345772266E0
1.671899912E0,-3.411877155E-1,5.362644196E-1,1.704899311E0
1.681805998E0,-4.004795551E-1,4.713349342E-1,2.118843079E0
1.691752041E0,-4.774635136E-1,4.076828957E-1,2.567703724E0
1.701794562E0,-5.008589029E-1,3.299555779E-1,2.876069546E0
1.711793823E0,-4.953699112E-1,2.196083069E-1,2.973491192E0
1.722392953E0,-4.639003873E-1,7.291078568E-2,2.945919037E0
1.732166018E0,-4.394201338E-1,-1.073241234E-1,2.828765869E0
1.742006051E0,-4.018311799E-1,-2.911353111E-1,2.636545181E0
1.752028567E0,-3.707306683E-1,-5.335516930E-1,2.416274548E0
1.761881325E0,-4.120817780E-1,-8.132863045E-1,2.143439293E0
1.771866204E0,-5.321699381E-1,-1.067134857E0,1.890486240E0
1.781777644E0,-7.725394964E-1,-1.254357815E0,1.823982716E0
1.792651864E0,-1.080042601E0,-1.381830215E0,1.895771980E0
1.802185974E0,-1.326669812E0,-1.429499626E0,2.020964622E0
1.812347029E0,-1.546438932E0,-1.483259678E0,2.118726254E0
1.822227556E0,-1.574975967E0,-1.556628704E0,2.090746880E0
1.832009820E0,-1.483971477E0,-1.611215115E0,1.863768101E0
1.842228952E0,-1.365069747E0,-1.633720398E0,1.476891041E0
1.852007018E0,-1.274055719E0,-1.579836845E0,1.058804989E0
1.861927051E0,-1.242728114E0,-1.511534691E0,6.205067635E-1
1.871844067E0,-1.256731033E0,-1.512819290E0,1.602044106E-1
1.882071075E0,-1.347019434E0,-1.507049084E0,-1.987338066E-1
1.891963079E0,-1.461712122E0,-1.529381275E0,-4.679245949E-1
1.902022081E0,-1.600976944E0,-1.516753674E0,-6.231751442E-1
1.911884582E0,-1.729511857E0,-1.504352093E0,-6.928353310E-1
1.921811833E0,-1.834216833E0,-1.493953228E0,-6.836590767E-1
1.932188958E0,-1.840242505E0,-1.515607357E0,-5.921201706E-1
1.941975021E0,-1.763118029E0,-1.581070900E0,-5.310921669E-1
1.951876552E0,-1.557414412E0,-1.702837944E0,-3.241434097E-1
1.961819318E0,-1.303689599E0,-1.805359364E0,-4.582548141E-2
1.971981701E0,-1.082197428E0,-1.894996643E0,2.197890282E-1
1.981834392E0,-9.026170969E-1,-1.960058212E0,3.614544868E-1
1.991774738E0,-7.426366806E-1,-2.039278984E0,4.812121391E-1
2.001745911E0,-7.120003104E-1,-2.102606297E0,5.407471657E-1
2.011755497E0,-7.675904036E-1,-2.131480217E0,5.226750374E-1
2.022053790E0,-9.258093238E-1,-2.076686859E0,5.083012581E-1
2.031899937E0,-1.090122223E0,-1.976029873E0,3.451595306E-1
2.043503010E0,-1.161164880E0,-1.853452682E0,-5.050325394E-2
2.052658047E0,-1.153771877E0,-1.857339382E0,-4.666757584E-2
2.062231065E0,-1.110428214E0,-1.759152889E0,-2.561531067E-1
2.071969574E0,-1.041041374E0,-1.704349518E0,-4.126291275E-1
2.081912829E0,-1.007301927E0,-1.657894135E0,-5.703201294E-1
2.091828956E0,-9.964018464E-1,-1.645051003E0,-7.674145699E-1
2.101785020E0,-1.067816257E0,-1.584240437E0,-9.083166122E-1
2.112197552E0,-1.207944512E0,-1.463860035E0,-1.047637463E0
2.122015818E0,-1.381524205E0,-1.266338348E0,-1.203260422E0
2.131884451E0,-1.503729463E0,-1.110616684E0,-1.260638237E0
2.141824767E0,-1.598707795E0,-1.005506516E0,-1.271127701E0
2.151782925E0,-1.666290283E0,-8.547835350E-1,-1.151384830E0
2.161766004E0,-1.729515433E0,-7.219471931E-1,-1.010313511E0
2.172500044E0,-1.699537277E0,-6.213097572E-1,-7.066531181E-1
2.182128064E0,-1.522710800E0,-6.451025009E-1,-3.000817299E-1
2.191938574E0,-1.283218265E0,-6.949872971E-1,6.449508667E-2
2.201841829E0,-9.462426305E-1,-5.833873749E-1,6.316695213E-1
2.211786956E0,-8.703459501E-1,-5.327253342E-1,8.516726494E-1
2.222597520E0,-8.628625870E-1,-4.611783028E-1,1.169342041E0
2.232178302E0,-5.094770193E-1,-2.137823105E-1,1.270424843E0
2.242173193E0,-2.169018984E-1,-2.647972107E-2,1.315784454E0
2.251953138E0,-1.301440001E-1,1.112532616E-1,1.401126385E0
2.261877111E0,-2.019776106E-1,2.724843025E-1,1.493760586E0
2.272709097E0,-3.299721479E-1,3.630065918E-1,1.638512611E0
2.282229590E0,-3.211503625E-1,3.886151314E-1,1.630973816E0
2.291998337E0,-2.006959915E-1,3.992781639E-1,1.427065849E0
2.301880710E0,-9.494072199E-2,4.036216736E-1,1.134375572E0
2.311801897E0,-7.884991169E-2,4.480834007E-1,9.829249382E-1
2.321883990E0,-1.347305775E-1,5.565004349E-1,9.768705368E-1
2.331810537E0,-2.238985300E-1,6.711492538E-1,9.294281006E-1
2.343575310E0,-2.837850451E-1,7.465858459E-1,9.304575920E-1
2.352649697E0,-3.906248212E-1,8.749542236E-1,9.811329842E-1
2.362245890E0,-6.214579940E-1,1.068710804E0,1.099080086E0
2.372003487E0,-7.280894518E-1,1.100140095E0,1.241179943E0
2.381884285E0,-4.724556208E-1,9.196729660E-1,1.311920643E0
2.391813184E0,-1.662613153E-1,8.155784607E-1,1.249835491E0
2.401787634E0,3.289167285E-1,6.107540131E-1,1.223730087E0
2.411926859E0,9.822788835E-1,2.558116913E-1,1.276079655E0
2.421892471E0,1.428897381E0,-9.027004242E-2,1.348959446E0
2.432088277E0,1.611522198E0,-3.285069466E-1,1.652943134E0
2.441919680E0,1.588360071E0,-5.500240326E-1,2.126519680E0
2.452033382E0,1.465152025E0,-7.224664688E-1,2.593793392E0
2.462159233E0,1.369603634E0,-8.825864792E-1,2.940204144E0
2.472026158E0,1.326975465E0,-9.777159691E-1,2.982614994E0
2.482118121E0,1.316097498E0,-9.847607613E-1,2.777707100E0
2.491938102E0,1.353888750E0,-9.304933548E-1,2.364080906E0
2.501839093E0,1.375365734E0,-9.196715355E-1,1.806042671E0
2.511789088E0,1.364062309E0,-8.815054893E-1,1.058880806E0
2.521769086E0,1.332266688E0,-9.027547836E-1,2.068548203E-1
2.531766085E0,1.290330648E0,-9.602365494E-1,-5.979881287E-1
2.541745584E0,1.274262786E0,-1.056971073E0,-1.198752880E0
2.551755334E0,1.179840088E0,-1.032603264E0,-1.502219677E0
2.561770709E0,1.052680254E0,-9.598646164E-1,-1.700213909E0
2.571767896E0,9.680409431E-1,-9.742379189E-1,-1.682712078E0
2.581842490E0,1.008570790E0,-1.107794762E0,-1.507390976E0
2.591777287E0,1.108392954E0,-1.207827091E0,-1.163086891E0
2.601779685E0,1.156380415E0,-1.213852882E0,-7.380475998E-1
2.611747384E0,1.174176455E0,-1.220924854E0,-3.098864555E-1
2.621952234E0,1.209444761E0,-1.289542198E0,5.111980438E-2
2.632440659E0,1.205223083E0,-1.363758564E0,3.091588020E-1
2.642177871E0,1.138456345E0,-1.362689972E0,4.765930176E-1
2.651959477E0,9.874252677E-1,-1.373145580E0,5.322442055E-1
2.662166280E0,8.063131571E-1,-1.425792694E0,3.821387291E-1
2.671969682E0,5.438356996E-1,-1.389538288E0,2.181758881E-1
2.681912883E0,2.602528036E-1,-1.228944302E0,-1.390867233E-1
2.691818983E0,7.113045454E-2,-1.071997643E0,-4.865183830E-1
2.701784033E0,-1.049548388E-2,-9.213800430E-1,-8.669247627E-1
2.711757058E0,9.247481823E-3,-7.712030411E-1,-1.263251305E0
2.721782571E0,6.571388245E-2,-6.632680893E-1,-1.562618732E0
2.731771827E0,1.258675456E-1,-5.685005188E-1,-1.713488579E0
2.742014955E0,3.489735723E-1,-3.329744339E-1,-1.580983162E0
2.751894019E0,4.981043637E-1,-2.769560814E-1,-1.485103607E0
2.761931051E0,6.076363921E-1,-2.669129372E-1,-1.332957745E0
2.771831567E0,7.067472935E-1,-2.223978043E-1,-1.052726746E0
2.781768825E0,7.058249712E-1,-1.359276772E-1,-9.275188446E-1
2.791777454E0,6.529883742E-1,-7.131433487E-2,-8.381571770E-1
2.801754769E0,5.359749794E-1,-7.265567780E-3,-6.973533630E-1
2.811760926E0,4.014135003E-1,2.788782120E-2,-6.625180244E-1
2.821817005E0,3.054164648E-1,5.011367798E-2,-6.808791161E-1
2.831793544E0,1.683222651E-1,-2.657413483E-3,-5.599703789E-1
2.841753314E0,4.866564274E-2,-4.484176636E-2,-3.611044884E-1
2.851794699E0,4.491031170E-3,-1.387763023E-1,-1.636638641E-1
2.861752891E0,-5.795240402E-3,-2.434844971E-1,1.159811020E-2
2.871757487E0,6.907880306E-3,-3.193125725E-1,2.184753418E-1
2.881751785E0,-4.601842165E-2,-3.353176117E-1,4.419550896E-1
2.891752934E0,-1.324713230E-1,-2.829761505E-1,6.917386055E-1
2.901746509E0,-2.301624417E-1,-2.432923317E-1,9.496974945E-1
2.911756296E0,-3.414610624E-1,-2.030630112E-1,1.146555901E0
2.921753690E0,-3.816019893E-1,-1.579165459E-1,1.303771496E0
2.931747387E0,-2.733878493E-1,-1.235661507E-1,1.431879044E0
2.942477735E0,-7.672619820E-2,-8.113718033E-2,1.417408943E0
2.952129909E0,5.961042643E-2,-8.671188354E-2,1.378060341E0
2.961932996E0,8.412069082E-2,-1.802778244E-2,1.425725460E0
2.971824540E0,9.148478508E-3,1.830596924E-1,1.579507351E0
2.981773312E0,-1.063660979E-1,4.101762772E-1,1.535192013E0
2.991748698E0,-2.345481515E-1,5.190806389E-1,1.670495510E0
3.001754391E0,-4.725832343E-1,7.222843170E-1,1.940532207E0
3.011742237E0,-7.270808220E-1,8.576769829E-1,2.207281113E0
3.021782660E0,-7.832639813E-1,8.378696442E-1,2.332087994E0
3.031783872E0,-6.708300114E-1,7.215261459E-1,2.489314556E0
3.041767978E0,-3.817214966E-1,5.423717499E-1,2.412611485E0
3.051828031E0,7.791167498E-2,3.040256500E-1,2.401357174E0
3.062099557E0,4.888194501E-1,8.761644363E-2,2.203496456E0
3.071910320E0,7.793133855E-1,-2.509207726E-1,2.194315434E0
3.084369202E0,8.564160466E-1,-9.791722298E-1,1.790583611E0
3.101735084E0,8.165873289E-1,-9.734253883E-1,1.782775879E0
3.111747084E0,4.522542357E-1,-1.219566345E0,1.617803097E0
3.121729084E0,-1.821215451E-1,-1.300992012E0,1.501876354E0
3.131740084E0,-8.175916672E-1,-1.282950878E0,1.410034180E0
3.141745084E0,-1.295252800E0,-1.258931637E0,1.200617313E0
3.151788084E0,-1.607202053E0,-1.267424107E0,9.715604782E-1
3.161739084E0,-1.766448975E0,-1.244559288E0,7.455182076E-1
3.171822084E0,-1.828005791E0,-1.184175014E0,4.789113998E-1
3.181822084E0,-1.797371507E0,-1.087837219E0,1.879644394E-1
3.191717084E0,-1.702215672E0,-9.668040276E-1,-8.591318130E-2
3.201737084E0,-1.526108980E0,-8.554630280E-1,-3.404049873E-1
3.211752084E0,-1.308438182E0,-7.923731804E-1,-5.453853607E-1
3.221758084E0,-9.680142403E-1,-8.035554886E-1,-6.123170853E-1
3.231766084E0,-6.142588854E-1,-8.750524521E-1,-7.108440399E-1
3.241731084E0,-3.160467744E-1,-9.774594307E-1,-7.911167145E-1
3.251732084E0,-1.028716117E-1,-1.056684494E0,-7.466988564E-1
3.261745084E0,4.014365375E-2,-1.139223099E0,-6.108431816E-1
3.271730084E0,1.637371480E-1,-1.234418392E0,-4.028124809E-1
3.281736084E0,2.553584874E-1,-1.343172073E0,-1.768817902E-1
3.291802084E0,2.861199677E-1,-1.576194286E0,2.207531929E-1
3.301737084E0,1.712464988E-1,-1.627728462E0,3.247399330E-1
3.311756084E0,-1.533961296E-2,-1.600824356E0,3.168025017E-1
3.321726084E0,-2.244163752E-1,-1.597539902E0,2.076268196E-1
3.331796084E0,-4.453954697E-1,-1.545755863E0,-1.022338867E-3
3.341957084E0,-6.500788331E-1,-1.480852604E0,-1.938729286E-1
3.351713084E0,-7.673910260E-1,-1.371912956E0,-4.378623962E-1
3.361752084E0,-7.982028127E-1,-1.256738186E0,-8.255987167E-1
3.371803084E0,-7.846558094E-1,-1.155012131E0,-1.096504688E0
3.381737084E0,-7.003548741E-1,-1.058099747E0,-1.278053284E0
3.393319084E0,-6.068037152E-1,-1.016293526E0,-1.462077141E0
3.401748084E0,-5.166832805E-1,-9.998803139E-1,-1.614525318E0
3.411804084E0,-5.062931776E-1,-9.508385658E-1,-1.651898861E0
3.421742084E0,-5.564861894E-1,-8.709034920E-1,-1.531525135E0
3.431771084E0,-6.488629580E-1,-7.663054466E-1,-1.249471188E0
3.441728084E0,-7.365472913E-1,-7.161817551E-1,-9.301161766E-1
3.451754084E0,-7.798718810E-1,-6.772413254E-1,-6.072955132E-1
3.461808084E0,-7.526770234E-1,-6.472396851E-1,-2.786183357E-1
3.471754084E0,-6.615045071E-1,-6.363372803E-1,1.089735031E-1
3.481702084E0,-5.169787407E-1,-6.353554726E-1,5.414714813E-1
3.491742084E0,-3.568734527E-1,-6.707167625E-1,8.570575714E-1
3.501735084E0,-2.281048596E-1,-6.827421188E-1,1.133688450E0
3.512065084E0,-1.900841743E-1,-6.430873871E-1,1.371460438E0
3.521720084E0,-1.157448292E-1,-3.559069633E-1,1.297395229E0
3.531745084E0,-2.196947336E-1,-1.544952393E-3,1.189825058E0
3.542292084E0,-4.260165393E-1,1.655502319E-1,1.080820084E0
3.551734084E0,-5.349544287E-1,2.719941139E-1,8.007478714E-1
3.561780084E0,-5.051366091E-1,4.054903984E-1,6.214833260E-1
3.571786084E0,-4.404603243E-1,5.934619904E-1,4.779181480E-1
3.583641084E0,-3.621624708E-1,7.199006081E-1,4.881911278E-1
3.591757084E0,-3.849219978E-1,9.224824905E-1,7.685794830E-1
3.601751084E0,-4.154229164E-1,1.095486164E0,9.949340820E-1
3.611712084E0,-4.553986490E-1,1.196103573E0,1.001785755E0
3.622789084E0,-4.915959537E-1,1.327731133E0,1.035944462E0
3.631771084E0,-5.104198456E-1,1.496612549E0,1.171666622E0
3.641780084E0,-4.146208167E-1,1.556539536E0,1.279956341E0
3.652215084E0,-1.247676611E-1,1.442370415E0,1.428611755E0
3.661763084E0,3.432085812E-1,1.144748211E0,1.681185722E0
3.671722084E0,7.875590920E-1,7.549300194E-1,1.878448009E0
3.681711084E0,1.098860502E0,3.394875526E-1,2.118572712E0
3.691698084E0,1.195951819E0,-1.341080666E-1,2.387808323E0
3.701742084E0,1.095770597E0,-5.498423576E-1,2.585580349E0
3.711929084E0,7.446590662E-1,-8.220443726E-1,2.724267483E0
3.721772084E0,3.493759036E-1,-8.910970688E-1,2.967355728E0
3.731751084E0,-9.915113449E-3,-8.379869461E-1,2.977973938E0
3.742769084E0,-1.567852795E-1,-7.483267784E-1,2.617966175E0
3.751759084E0,-5.132380128E-2,-6.789746284E-1,2.002746105E0
3.761698084E0,1.826281846E-1,-4.843282700E-1,1.447115421E0
3.771745084E0,2.930729985E-1,-1.834092140E-1,8.223786354E-1
3.781737084E0,4.486337304E-1,-2.249717712E-3,1.163344383E-1
3.793201084E0,9.510818720E-1,-1.271834373E-1,-9.292607307E-1
3.801942084E0,9.221937656E-1,-1.396098137E-1,-9.212083817E-1
3.811778084E0,1.068824768E0,-2.504687309E-1,-1.123537064E0
3.821788084E0,1.166729093E0,-3.997673988E-1,-1.123548031E0
3.831706084E0,1.271088839E0,-7.393035889E-1,-6.662588120E-1
3.841733084E0,1.266067266E0,-8.582487106E-1,-4.808578491E-1
3.851731084E0,1.264121771E0,-8.773627281E-1,-4.119529724E-1
3.862119084E0,1.171205640E0,-8.658423424E-1,-3.945879936E-1
3.871725084E0,1.074619889E0,-8.110890388E-1,-3.210167885E-1
3.881728084E0,9.456210136E-1,-8.171548843E-1,-3.976464272E-1
3.891709084E0,8.266466856E-1,-8.508243561E-1,-5.269317627E-1
3.904125084E0,6.691371202E-1,-8.102402687E-1,-6.646895409E-1
3.921749084E0,1.815754473E-1,-5.496978760E-1,-1.056182861E0
3.931715084E0,1.823008060E-2,-4.987673759E-1,-1.270895481E0
3.941795084E0,-4.918575287E-2,-4.323620796E-1,-1.431602001E0
3.951815084E0,-8.216741681E-2,-2.862420082E-1,-1.604311466E0
3.961747084E0,-1.220152974E-1,-8.404588699E-2,-1.670279980E0
3.971845084E0,-6.484133005E-2,9.100151062E-2,-1.665032864E0
3.981705084E0,9.113121033E-2,1.802573204E-1,-1.692017078E0
3.992269084E0,2.965736985E-1,1.908736229E-1,-1.635961056E0
4.001779084E0,4.368621707E-1,2.568798065E-1,-1.417486668E0
4.011730084E0,5.569174290E-1,3.387436867E-1,-9.656462669E-1
4.021971084E0,7.322779298E-1,3.024115562E-1,-4.595513344E-1
4.032393084E0,9.901831150E-1,2.230262756E-1,-1.737608910E-1
4.042530084E0,1.253875971E0,7.424545288E-2,5.219936371E-2
4.051770084E0,1.387110591E0,-3.190517426E-2,2.890281677E-1
4.061774084E0,1.286821365E0,-4.619359970E-2,4.415988922E-1
4.072698084E0,9.809983969E-1,1.418352127E-2,4.959726334E-1
4.081752084E0,6.134914160E-1,7.212734222E-2,5.391979218E-1
4.091781084E0,2.278619856E-1,1.487588882E-1,5.881013870E-1
4.101811084E0,-1.670165956E-1,2.645521164E-1,6.526279449E-1
4.112458084E0,-4.753974676E-1,4.095458984E-1,8.786830902E-1
4.121846084E0,-6.494932771E-1,5.239043236E-1,1.242121696E0
4.131709084E0,-6.973471045E-1,6.036043167E-1,1.573596001E0
4.141849084E0,-6.510679126E-1,6.762619019E-1,1.825316429E0
4.151718084E0,-5.370247364E-1,7.714915276E-1,1.951041222E0
4.162802084E0,-3.971216679E-1,8.609771729E-1,2.054147720E0
4.171809084E0,-2.627735734E-1,9.620742798E-1,2.081782341E0
4.181713084E0,-5.705922842E-2,1.060552120E0,1.949182510E0
4.191772084E0,2.649367750E-1,1.061979294E0,1.755700111E0
4.202156084E0,4.641535282E-1,9.928603172E-1,1.630452156E0
4.211728084E0,4.513026476E-1,1.010583401E0,1.518108368E0
4.221779084E0,3.338879943E-1,1.035505772E0,1.351902962E0
4.231745084E0,6.288155913E-2,9.675564766E-1,1.239757538E0
4.241740084E0,-2.409738302E-1,7.724342346E-1,1.433237076E0
4.251724084E0,-5.905272365E-1,4.875240326E-1,1.902501106E0
4.261744084E0,-8.491010070E-1,1.224083900E-1,2.493868828E0
4.271720084E0,-8.527978063E-1,-1.255054474E-1,3.017295837E0
4.281805084E0,-7.972078919E-1,-4.858045578E-1,3.662738800E0
4.292102084E0,-6.617740393E-1,-8.225893974E-1,4.041604996E0
4.301768084E0,-5.520924330E-1,-1.074989319E0,3.961072922E0
4.311972084E0,-5.502963662E-1,-1.219491959E0,3.570099831E0
4.321805084E0,-6.230213046E-1,-1.279581547E0,2.932916641E0
4.331797084E0,-6.874014735E-1,-1.208328724E0,2.178835869E0
4.341750084E0,-7.537266612E-1,-1.091903210E0,1.384573936E0
4.355836084E0,-8.130322099E-1,-9.431281090E-1,2.491531372E-1
4.371720084E0,-1.126017332E0,-9.916114807E-1,-1.928772926E-1
4.382782084E0,-1.366433263E0,-1.017912865E0,-6.137084961E-2
4.392308084E0,-1.543169498E0,-1.009862900E0,1.793327332E-1
4.401779084E0,-1.572660089E0,-1.089145660E0,4.627161026E-1
4.411696084E0,-1.515822411E0,-1.187604904E0,6.810216904E-1
4.421737084E0,-1.412183404E0,-1.283217907E0,8.835334778E-1
4.431915084E0,-1.251816988E0,-1.351747990E0,9.495124817E-1
4.441856084E0,-1.043591738E0,-1.387407780E0,8.884487152E-1
4.451755084E0,-8.586327434E-1,-1.424510241E0,7.490558624E-1
4.461849084E0,-7.624943852E-1,-1.392195463E0,4.906530380E-1
4.471872084E0,-6.995282769E-1,-1.377660990E0,1.376132965E-1
4.481939084E0,-6.270369887E-1,-1.370522738E0,-2.612452507E-1
4.491701084E0,-5.485219359E-1,-1.323034525E0,-6.196331978E-1
4.502097084E0,-4.789335728E-1,-1.282892227E0,-9.243621826E-1
4.511749084E0,-3.623781204E-1,-1.345335960E0,-1.185692310E0
4.522061084E0,-2.385965586E-1,-1.444182396E0,-1.388336182E0
4.531767084E0,-2.018282413E-1,-1.520992041E0,-1.430875778E0
4.541737084E0,-2.424184680E-1,-1.551209927E0,-1.333973885E0
4.551768084E0,-2.863755822E-1,-1.564880371E0,-1.177515030E0
4.561752084E0,-2.492910028E-1,-1.567671299E0,-9.580717087E-1
4.571756084E0,-1.228564382E-1,-1.562069893E0,-8.408241272E-1
4.581857084E0,2.068811655E-2,-1.582992315E0,-9.428882599E-1
4.593448084E0,1.012730598E-1,-1.545021772E0,-1.071868896E0
4.601719084E0,6.809622049E-2,-1.461719036E0,-1.303158283E0
4.612461084E0,-2.474707365E-2,-1.341755152E0,-1.529539108E0
4.621712084E0,-1.032145619E-1,-1.287552357E0,-1.703824520E0
4.631709084E0,-1.980819106E-1,-1.265185595E0,-1.823786736E0
4.642201084E0,-3.463303447E-1,-1.228967190E0,-1.835998535E0
4.654441084E0,-4.541167617E-1,-1.165971279E0,-1.678371429E0
4.671743084E0,-5.261715651E-1,-8.655948639E-1,-1.074559689E0
4.681843084E0,-4.423746467E-1,-7.288389206E-1,-7.740283012E-1
4.691815084E0,-3.049107194E-1,-6.141090393E-1,-3.486781120E-1
4.702045084E0,-2.348217368E-1,-5.036420822E-1,-6.167697906E-2
4.711773084E0,-2.270170450E-1,-3.493685722E-1,1.196336746E-1
4.721750084E0,-2.031941414E-1,-2.174348831E-1,1.481180191E-1
4.731811084E0,-1.800153852E-1,-8.055305481E-2,1.447505951E-1
4.741750084E0,-1.595116258E-1,1.304464340E-1,2.062654495E-1
4.751747084E0,-1.638609171E-1,3.251762390E-1,2.264823914E-1
4.761729084E0,-1.140903831E-1,4.157757759E-1,2.406635284E-1
4.771790084E0,-5.335253477E-2,5.035500526E-1,2.521896362E-1
4.784546084E0,7.126522064E-2,7.540626526E-1,6.482000351E-1
4.801754084E0,1.272394061E-1,8.459329605E-1,9.651174545E-1
4.811771084E0,1.924832165E-1,9.254965782E-1,1.332381248E0
4.821739084E0,1.704354584E-1,9.724884033E-1,1.563221931E0
4.831837084E0,5.172729492E-3,1.097997665E0,1.612680435E0
4.841718084E0,-2.072827220E-1,1.174534798E0,1.592495918E0
4.851755084E0,-4.036168456E-1,1.248343468E0,1.508495331E0
4.861762084E0,-6.087281108E-1,1.373335361E0,1.317034721E0
4.871716084E0,-7.400584817E-1,1.446350574E0,1.128324509E0
4.882145084E0,-6.329436898E-1,1.392851353E0,1.124411583E0
4.891766084E0,-6.057962775E-1,1.488232613E0,1.119545937E0
4.901782084E0,-2.998328805E-1,1.363206863E0,2.068263054E0
4.911741084E0,4.058236480E-1,9.161968231E-1,2.431887627E0
4.922923084E0,5.949075222E-1,5.764741898E-1,2.908586502E0
4.933270084E0,6.782798171E-1,1.501226425E-1,3.340564728E0
4.941734084E0,6.708081365E-1,-1.894502640E-1,3.460616112E0
4.951752084E0,6.401996613E-1,-4.420623779E-1,3.346371651E0
4.961740084E0,6.127020121E-1,-6.204605103E-1,3.123050690E0
4.971726084E0,6.117432117E-1,-7.302336693E-1,2.830302238E0
4.981765084E0,6.299272776E-1,-8.960804939E-1,2.509176254E0
4.991780084E0,6.912956238E-1,-9.985761642E-1,2.190656662E0
5.001740084E0,6.821846962E-1,-1.082978964E0,1.913492203E0
5.011845084E0,6.953811646E-1,-1.177933455E0,1.674165726E0
5.021755084E0,5.920211673E-1,-1.234793663E0,1.511402130E0
5.031717084E0,5.021070838E-1,-1.212747097E0,1.310058594E0
5.041709084E0,5.164722800E-1,-1.215140343E0,9.832496643E-1
5.051747084E0,6.262577772E-1,-1.317496538E0,5.116214752E-1
5.061739084E0,7.201151848E-1,-1.380080938E0,6.041431427E-2
5.071759084E0,7.929632664E-1,-1.406366825E0,-4.118518829E-1
5.081744084E0,8.488285542E-1,-1.367136478E0,-8.462886810E-1
5.091728084E0,9.157437086E-1,-1.343869448E0,-1.264330387E0
5.101761084E0,9.543861151E-1,-1.335726261E0,-1.564626694E0
5.111750084E0,1.016487360E0,-1.398399830E0,-1.661952496E0
5.121738084E0,1.050923586E0,-1.482783318E0,-1.669206142E0
5.131775084E0,1.013169527E0,-1.501183033E0,-1.624567986E0
5.142602084E0,9.362115860E-1,-1.480541706E0,-1.534904480E0
5.152435084E0,8.512430191E-1,-1.454520941E0,-1.380227089E0
5.161740084E0,7.763434649E-1,-1.379756212E0,-1.192680836E0
5.171858084E0,6.885723472E-1,-1.307894468E0,-1.103476048E0
5.181769084E0,5.555782914E-1,-1.257805347E0,-9.728121758E-1
5.191882084E0,4.021032751E-1,-1.123604298E0,-7.807803154E-1
5.201746084E0,2.455440611E-1,-1.084891319E0,-7.605123520E-1
5.211783084E0,1.172977537E-1,-1.017657280E0,-9.078598022E-1
5.221923084E0,-1.443213224E-2,-9.230313301E-1,-1.111266136E0
5.231766084E0,-7.879675925E-2,-7.724719048E-1,-1.384988785E0
5.241730084E0,-7.629486918E-2,-6.833815575E-1,-1.646269798E0
5.251783084E0,-4.634678364E-3,-5.994858742E-1,-1.824007511E0
5.261751084E0,4.524639249E-2,-5.368223190E-1,-1.950128078E0
5.271775084E0,6.371216476E-2,-4.543781281E-1,-1.954500198E0
5.281772084E0,6.416429579E-2,-3.921012878E-1,-1.765740395E0
5.291818084E0,1.444549263E-1,-3.953380585E-1,-1.569464684E0
5.301820084E0,2.153273374E-1,-3.878269196E-1,-1.258054256E0
5.311696084E0,2.930475771E-1,-3.146519661E-1,-8.808946609E-1
5.321801084E0,3.628333211E-1,-2.620840073E-1,-5.617032051E-1
5.331767084E0,5.005894899E-1,-2.095627785E-1,-2.188673019E-1
5.342100084E0,6.750001907E-1,-1.877913475E-1,3.835582733E-2
5.354288084E0,6.491868496E-1,-2.263164520E-2,-1.805601120E-1
5.371764084E0,5.886559486E-1,6.673479080E-2,-4.833536148E-1
5.382049084E0,4.851934910E-1,2.132506371E-1,-8.301634789E-1
5.391754084E0,3.883032799E-1,3.505578041E-1,-1.197838306E0
5.401738084E0,2.838645577E-1,4.524021149E-1,-1.386261940E0
5.411703084E0,1.818596721E-1,5.643892288E-1,-1.369361401E0
5.421944084E0,7.468509674E-2,6.820793152E-1,-1.225768089E0
5.431769084E0,8.538725972E-2,7.332687378E-1,-8.141212463E-1
5.441712084E0,2.131291032E-1,6.776957512E-1,-3.704881668E-1
5.451748084E0,4.761593044E-1,7.179603577E-1,1.082984924E0
5.461732084E0,5.786007047E-1,7.605729103E-1,1.948657036E0
5.471749084E0,7.080646753E-1,7.611584663E-1,2.759538651E0
5.481838084E0,8.147292733E-1,7.129740715E-1,3.400958061E0
5.491820084E0,7.203838229E-1,7.465858459E-1,3.646143913E0
5.501767084E0,4.704173803E-1,8.871259689E-1,3.569071770E0
5.511733084E0,2.303379774E-2,1.150668144E0,3.251821518E0
5.521890084E0,-4.482699633E-1,1.380372524E0,2.730377197E0
5.531693084E0,-7.016557455E-1,1.402055740E0,2.218678474E0
5.541740084E0,-7.621485591E-1,1.292922497E0,1.738268852E0
5.551760084E0,-6.575801969E-1,1.049734116E0,1.277471542E0
5.561717084E0,-3.836731315E-1,6.641035080E-1,9.461212158E-1
5.573019084E0,-4.880100489E-2,1.943664551E-1,8.100185394E-1
5.581694084E0,1.731970310E-1,-2.578067780E-1,8.520174026E-1
5.592501084E0,2.188985944E-1,-6.596832275E-1,1.111285210E0
5.602037084E0,6.897419691E-2,-9.493956566E-1,1.348778725E0
5.612226084E0,-1.917918921E-1,-1.146636009E0,1.544756889E0
5.621777084E0,-5.027302504E-1,-1.249398470E0,1.644845963E0
5.632183084E0,-8.702088594E-1,-1.231534481E0,1.625948906E0
5.641769084E0,-1.142058134E0,-1.086669445E0,1.501635551E0
5.651734084E0,-1.261321783E0,-9.394598007E-1,1.309625626E0
5.661733084E0,-1.162994623E0,-8.894753456E-1,1.055288315E0
5.671857084E0,-1.004442573E0,-8.733465672E-1,6.124153137E-1
5.681812084E0,-9.083409905E-1,-8.396525383E-1,1.694126129E-1
5.691945084E0,-8.283098340E-1,-7.413930893E-1,-3.330669403E-1
5.701762084E0,-6.718962193E-1,-6.913218498E-1,-5.976457596E-1
5.711763084E0,-3.884744644E-1,-7.746329308E-1,-9.498324394E-1
5.721779084E0,-1.419146657E-1,-8.363494873E-1,-1.220046997E0
5.731721084E0,1.174747944E-2,-8.244605064E-1,-1.342871189E0
5.741844084E0,8.477759361E-2,-8.239593506E-1,-1.415163517E0
5.751765084E0,1.599112749E-1,-8.525526524E-1,-1.425259590E0
5.761776084E0,2.511203885E-1,-9.347195625E-1,-1.334732533E0
5.771740084E0,3.392043710E-1,-1.026557684E0,-1.164734840E0
5.781846084E0,3.730794489E-1,-1.071079731E0,-1.032919884E0
5.791774084E0,4.155312181E-1,-1.058686256E0,-9.198288918E-1
5.801856084E0,4.521275461E-1,-1.074312449E0,-8.200788498E-1
5.811884084E0,4.445724785E-1,-1.056773901E0,-8.542881012E-1
5.822761084E0,4.095905721E-1,-9.984290600E-1,-9.839239120E-1
5.831748084E0,3.926515877E-1,-9.626789093E-1,-1.149200439E0
5.841730084E0,4.200771749E-1,-9.331157207E-1,-1.288345814E0
5.851717084E0,4.304883778E-1,-9.258654118E-1,-1.524372578E0
5.861733084E0,4.006818533E-1,-9.070570469E-1,-1.677152157E0
5.872792084E0,3.303424120E-1,-8.804426193E-1,-1.659876347E0
5.881746084E0,2.304978967E-1,-7.866818905E-1,-1.555728912E0
5.891741084E0,1.474930048E-1,-6.980428696E-1,-1.483138561E0
5.901744084E0,1.162818670E-1,-6.769390106E-1,-1.364708424E0
5.911853084E0,1.481469274E-1,-6.500105858E-1,-1.257208824E0
5.921799084E0,1.611686349E-1,-5.156397820E-1,-1.270199299E0
5.931767084E0,1.507666111E-1,-3.873696327E-1,-1.374576092E0
5.941723084E0,1.498987675E-1,-2.616820335E-1,-1.461521149E0
5.951724084E0,1.283565760E-1,-1.166086197E-1,-1.587697983E0
5.961743084E0,8.649533987E-2,7.435035706E-2,-1.681008816E0
5.971754084E0,5.442714691E-2,2.010936737E-1,-1.615855694E0
5.981739084E0,2.677911520E-2,2.679715157E-1,-1.156350136E0
5.991766084E0,-7.477641106E-3,4.928979874E-1,-7.155976295E-1
6.001765084E0,5.543851852E-2,5.410404205E-1,-3.039436340E-1
6.011726084E0,1.495707035E-1,5.141258240E-1,5.200004578E-2
6.021760084E0,2.378534079E-1,5.090913773E-1,2.695169449E-1
6.032765084E0,3.010382652E-1,5.215878487E-1,3.396902084E-1
6.041873084E0,3.304623961E-1,5.613455772E-1,3.891973495E-1
6.051795084E0,3.070737720E-1,6.200737953E-1,4.027242661E-1
6.061726084E0,2.356914878E-1,6.569252014E-1,5.983285904E-1
6.071904084E0,1.650581956E-1,6.609091759E-1,7.978830338E-1
6.081782084E0,4.427677393E-2,6.528468132E-1,1.118474960E0
6.091713084E0,-1.410678029E-1,6.808452606E-1,1.575724602E0
6.101741084E0,-3.025955558E-1,6.996774673E-1,1.996224403E0
6.111793084E0,-3.371665478E-1,6.752023697E-1,2.636700630E0
6.122175084E0,-2.161886692E-1,6.045293808E-1,3.098625183E0
6.131786084E0,-5.367606878E-2,6.345977783E-1,3.253256798E0
6.141764084E0,1.360360682E-1,6.228442192E-1,3.246210098E0
6.151757084E0,2.934668064E-1,6.843056679E-1,3.084968567E0
6.162242084E0,4.042880833E-1,6.908321381E-1,2.656604767E0
6.171832084E0,3.722206056E-1,6.282205582E-1,2.100073814E0
6.181729084E0,1.893223822E-1,7.107577324E-1,1.747824669E0
6.191767084E0,-8.222836256E-2,8.343601227E-1,1.246832848E0
6.202383084E0,-3.647441268E-1,8.630905151E-1,7.344741821E-1
6.212274084E0,-5.401166677E-1,6.433367729E-1,4.425506592E-1
6.221724084E0,-7.635244727E-1,5.904202461E-1,4.504613876E-1
6.231708084E0,-9.047892094E-1,5.839328766E-1,8.737068176E-1
6.241859084E0,-8.364042044E-1,4.536147118E-1,1.290203094E0
6.251740084E0,-4.685632586E-1,3.329658508E-2,1.578533173E0
6.261796084E0,-6.801348925E-2,-3.588705063E-1,1.937952042E0
6.271950084E0,2.135812640E-1,-6.869583130E-1,2.253150940E0
6.281724084E0,3.864372373E-1,-9.346981049E-1,2.362105370E0
6.291707084E0,4.355674684E-1,-1.156661987E0,2.473993301E0
6.301717084E0,3.984580636E-1,-1.278837919E0,2.560648918E0
6.311792084E0,3.056418300E-1,-1.245503187E0,2.404044151E0
6.321745084E0,1.970688999E-1,-1.225687265E0,2.109707832E0
6.331695084E0,4.973816872E-2,-1.187381029E0,2.000307083E0
6.341759084E0,-1.105172634E-1,-1.111161709E0,1.813540459E0
6.351738084E0,-1.523629427E-1,-1.064923286E0,1.581047058E0
6.364613084E0,2.819424868E-2,-1.017479658E0,1.346626282E0
6.381706084E0,7.578408122E-1,-1.077314854E0,8.663845062E-2
6.391769084E0,1.010437012E0,-1.062459707E0,-4.592742920E-1
6.401729084E0,1.072932482E0,-9.545536041E-1,-9.404926300E-1
6.411816084E0,1.095423222E0,-9.041829109E-1,-1.338325024E0
6.421719084E0,1.125505924E0,-9.835691452E-1,-1.662890434E0
6.431739084E0,1.051639795E0,-1.018813610E0,-1.995503426E0
6.441764084E0,8.989490271E-1,-1.022487164E0,-2.212598324E0
6.451758084E0,6.714999080E-1,-1.024881363E0,-2.328717232E0
6.462141084E0,4.812543988E-1,-1.010067940E0,-2.240818977E0
6.471717084E0,2.875685692E-1,-9.926180840E-1,-1.931627750E0
6.481728084E0,2.031191587E-1,-9.611487389E-1,-1.489833832E0
6.491724084E0,2.864943743E-1,-9.642953873E-1,-9.649076462E-1
6.501775084E0,4.426569343E-1,-1.052063227E0,-7.456173897E-1
6.511727084E0,6.314803362E-1,-1.132363081E0,-6.262736320E-1
6.523190084E0,7.085880041E-1,-1.099060059E0,-9.148588181E-1
6.531717084E0,6.403273344E-1,-9.823331833E-1,-1.119039536E0
6.541726084E0,5.929951072E-1,-8.503694534E-1,-1.459833622E0
6.551758084E0,5.881001949E-1,-8.320174217E-1,-1.817387581E0
6.561798084E0,5.603728294E-1,-7.709803581E-1,-2.066938877E0
6.571698084E0,4.492487907E-1,-6.496186256E-1,-2.229706287E0
6.581707084E0,3.839687705E-1,-5.860533714E-1,-2.188812733E0
6.591717084E0,4.270296097E-1,-5.446472168E-1,-2.075583458E0
6.601854084E0,4.678538442E-1,-4.419322014E-1,-2.022868156E0
6.612217084E0,4.861604869E-1,-3.375630379E-1,-1.867505550E0
6.621740084E0,4.731273651E-1,-1.684894562E-1,-1.691781044E0
6.631829084E0,4.765099883E-1,-9.078693390E-2,-1.561170101E0
6.641731084E0,4.727053642E-1,-1.234388351E-2,-1.510882854E0
6.651803084E0,4.233922958E-1,1.022453308E-1,-1.394684792E0
6.661739084E0,3.206524849E-1,2.280440331E-1,-1.233283043E0
6.671713084E0,2.162033916E-1,3.580918312E-1,-1.095209122E0
6.681750084E0,1.653620005E-1,4.343962669E-1,-1.007259369E0
6.691722084E0,1.314058304E-1,4.699950218E-1,-7.523679733E-1
6.702206084E0,5.170392990E-2,5.127668381E-1,-3.956665993E-1
6.711714084E0,-1.401128769E-1,6.080098152E-1,2.715873718E-1
6.721782084E0,-2.541908026E-1,6.410007477E-1,1.079725266E0
6.731720084E0,-3.027703762E-1,6.125388145E-1,1.958341599E0
6.741724084E0,-3.712933064E-1,5.903720856E-1,2.510348320E0
6.751743084E0,-5.095760822E-1,7.054605484E-1,2.830335617E0
6.761738084E0,-7.626373768E-1,9.070315361E-1,2.887938499E0
6.771903084E0,-9.856218100E-1,1.105379105E0,2.790840149E0
6.781708084E0,-1.049998760E0,1.163975716E0,2.653097153E0
6.791838084E0,-1.012929320E0,1.171609402E0,2.494900703E0
6.801767084E0,-9.471587539E-1,1.136919498E0,2.457351685E0
6.812147084E0,-9.359241724E-1,1.019780636E0,2.566624641E0
6.821792084E0,-9.521464109E-1,9.127292633E-1,2.747068405E0
6.832020084E0,-9.433213472E-1,7.843384743E-1,2.900382996E0
6.841760084E0,-8.417431712E-1,5.494260788E-1,2.979348183E0
6.851728084E0,-6.382361054E-1,2.693047523E-1,3.002092361E0
6.861757084E0,-5.481210351E-1,8.680343628E-3,3.028393745E0
6.871762084E0,-4.501574039E-1,-2.898025513E-1,3.081954956E0
6.881720084E0,-3.768248558E-1,-5.731201172E-1,3.070824623E0
6.892946084E0,-3.124583960E-1,-7.748961449E-1,2.881348610E0
6.901705084E0,-1.927782297E-1,-9.195685387E-1,2.731682777E0
6.911737084E0,6.228694320E-2,-1.077765465E0,2.596761703E0
6.924813084E0,2.620642483E-1,-1.268717051E0,1.646619797E0
6.941713084E0,-1.633464098E-1,-1.240711451E0,1.174491882E0
6.951828084E0,-6.567139626E-1,-1.210764647E0,7.296886444E-1
6.961716084E0,-1.012686968E0,-1.175113678E0,2.501850128E-1
6.976918084E0,-1.301556587E0,-1.268973589E0,-4.761409760E-1
6.991756084E0,-1.248888254E0,-1.370892763E0,-7.437214851E-1
7.001732084E0,-1.044995308E0,-1.479980469E0,-9.804816246E-1
7.011711084E0,-7.950378060E-1,-1.575680971E0,-1.154356480E0
7.021765084E0,-5.391070843E-1,-1.677479982E0,-1.294058323E0
7.031733084E0,-3.757866621E-1,-1.729197025E0,-1.380779266E0
7.041762084E0,-3.193155229E-1,-1.679707527E0,-1.508898735E0
7.051843084E0,-3.593780994E-1,-1.611932993E0,-1.555220604E0
7.061735084E0,-3.825765848E-1,-1.541007757E0,-1.622605801E0
7.071723084E0,-3.424386382E-1,-1.555224419E0,-1.668557167E0
7.081796084E0,-3.595110774E-1,-1.525263071E0,-1.685417175E0
7.091753084E0,-3.476984799E-1,-1.461879492E0,-1.724324703E0
7.101740084E0,-3.019800782E-1,-1.367964268E0,-1.638931274E0
7.111742084E0,-2.459520698E-1,-1.284657717E0,-1.744287014E0
7.121765084E0,-1.928630024E-1,-1.232082129E0,-1.799234390E0
7.133245084E0,-1.476342976E-1,-1.179069281E0,-1.829402447E0
7.141988084E0,-1.838034987E-1,-1.111108541E0,-1.804225922E0
7.151696084E0,-2.697979212E-1,-1.066014767E0,-1.880136490E0
7.161946084E0,-4.160215855E-1,-9.689259529E-1,-1.779840469E0
7.172099084E0,-5.038429499E-1,-8.272619247E-1,-1.804442883E0
7.181828084E0,-5.485232472E-1,-7.869448662E-1,-1.790805340E0
7.191794084E0,-5.485650301E-1,-7.063446045E-1,-1.720760345E0
7.201747084E0,-5.717633963E-1,-6.039724350E-1,-1.516808510E0
7.211711084E0,-5.759471059E-1,-4.618153572E-1,-1.247893333E0
7.221830084E0,-5.232036114E-1,-3.497409821E-1,-1.041339397E0
7.231678084E0,-4.189782739E-1,-2.931847572E-1,-7.497057915E-1
7.241677084E0,-4.065640569E-1,-1.710133553E-1,-4.897007942E-1
7.251706084E0,-4.065390527E-1,-2.903509140E-2,-1.653909683E-1
7.261732084E0,-3.996820152E-1,6.796455383E-2,9.120750427E-2
7.271732084E0,-3.154301047E-1,9.975671768E-2,2.750606537E-1
7.281723084E0,-1.839822233E-1,1.173968315E-1,4.656791687E-1
7.291879084E0,-9.735724330E-2,1.475157738E-1,6.584320068E-1
7.301899084E0,6.535804272E-2,1.731295586E-1,8.316926956E-1
7.312009084E0,2.085037827E-1,1.406130791E-1,9.584331512E-1
7.321929084E0,2.772040963E-1,1.170687675E-1,1.071706772E0
7.331779084E0,2.138140202E-1,2.065405846E-1,1.115819931E0
7.341818084E0,1.226594448E-1,2.738590240E-1,1.251165390E0
7.351816084E0,-8.029103279E-3,3.016958237E-1,1.378252983E0
7.361864084E0,-1.530542970E-1,3.739662170E-1,1.553935051E0
7.371815084E0,-2.653185725E-1,4.281668663E-1,1.792063713E0
7.381815084E0,-2.774899006E-1,3.929820061E-1,2.097396851E0
7.391732084E0,-2.243356109E-1,3.126187325E-1,2.279940605E0
7.401738084E0,-1.616306901E-1,2.864708900E-1,2.300992966E0
7.411733084E0,-1.976509690E-1,3.459849358E-1,2.320649147E0
7.421736084E0,-3.062525392E-1,5.016999245E-1,2.213624954E0
7.431671084E0,-3.724645376E-1,5.776772499E-1,2.084422112E0
7.441845084E0,-3.573350906E-1,5.823340416E-1,1.881166458E0
7.451698084E0,-2.879158854E-1,5.515642166E-1,1.652798653E0
7.461972084E0,-1.858225465E-1,5.467486382E-1,1.488376617E0
7.471701084E0,-1.067283154E-1,5.275297165E-1,1.302757263E0
7.481675084E0,-9.543210268E-2,4.932036400E-1,1.154557228E0
7.491741084E0,-6.296646595E-2,4.177689552E-1,1.128636360E0
7.501690084E0,-5.580896139E-2,3.399510384E-1,1.084512711E0
7.511709084E0,-1.636052132E-2,2.499070168E-1,1.038941383E0
7.521704084E0,5.627530813E-2,9.543466568E-2,9.671173096E-1
7.531715084E0,1.048619449E-1,-8.657455444E-2,8.966407776E-1
7.541714084E0,1.136642396E-1,-2.472019196E-1,8.778066635E-1
7.551704084E0,1.135747731E-1,-4.227190018E-1,7.908849716E-1
7.561718084E0,1.348552108E-1,-6.318192482E-1,8.058176041E-1
7.571743084E0,1.534466445E-1,-8.408942223E-1,9.204502106E-1
7.581740084E0,1.961110234E-1,-1.070756197E0,1.064968109E0
7.591725084E0,2.659887671E-1,-1.280044317E0,1.171408653E0
7.601728084E0,2.692778409E-1,-1.457766771E0,9.664831161E-1
7.611736084E0,7.642132044E-2,-1.609322548E0,6.307392120E-1
7.621719084E0,2.358853817E-2,-1.627698183E0,2.457618713E-1
7.631681084E0,-5.194044113E-2,-1.642370224E0,-2.131118774E-1
7.641693084E0,-9.812313318E-2,-1.618856907E0,-6.443371773E-1
7.651703084E0,-9.006023407E-2,-1.581730843E0,-9.621353149E-1
7.661761084E0,-5.996024609E-2,-1.447330952E0,-1.304141998E0
7.671728084E0,6.861984730E-3,-1.275428057E0,-1.487903118E0
7.681722084E0,1.864553094E-1,-1.107443810E0,-1.447525024E0
7.691762084E0,4.455356002E-1,-1.048416376E0,-1.189837456E0
7.701771084E0,7.536455393E-1,-9.971389771E-1,-7.974452972E-1
7.711738084E0,1.002747297E0,-9.517467022E-1,-4.661121368E-1
7.721734084E0,1.197436094E0,-8.834552765E-1,-2.752866745E-1
7.731734084E0,1.302901030E0,-8.375203609E-1,-1.552066803E-1
7.741804084E0,1.305904865E0,-7.453775406E-1,-2.884349823E-1
7.751738084E0,1.229536891E0,-6.559252739E-1,-4.633312225E-1
7.761751084E0,1.099015474E0,-5.203633308E-1,-6.883039474E-1
7.771850084E0,8.965315223E-1,-4.032239914E-1,-9.428191185E-1
7.781802084E0,7.246032953E-1,-3.709244728E-1,-1.160369396E0
7.791717084E0,5.964684486E-1,-3.989934921E-1,-1.268227100E0
7.801732084E0,4.710499644E-1,-3.524894714E-1,-1.426393986E0
7.811840084E0,3.824291229E-1,-2.933278084E-1,-1.519414902E0
7.821762084E0,3.274009228E-1,-2.239999771E-1,-1.671541691E0
7.831682084E0,2.512176633E-1,-1.939625740E-1,-1.773117542E0
7.841718084E0,1.952754259E-1,-1.370244026E-1,-1.848047733E0
7.851726084E0,1.496201158E-1,-7.604837418E-2,-1.928236485E0
7.861802084E0,1.026617289E-1,6.270408630E-4,-1.950014591E0
7.871725084E0,-2.740263939E-2,1.054453850E-1,-1.873646736E0
7.881724084E0,-1.772565842E-1,2.136154175E-1,-1.703742504E0
7.891831084E0,-2.739118338E-1,2.637348175E-1,-1.442783833E0
7.901800084E0,-3.384239674E-1,2.517185211E-1,-1.142718792E0
7.911773084E0,-4.161330462E-1,2.479753494E-1,-8.714728355E-1
7.921700084E0,-4.310700297E-1,2.364568710E-1,-6.494207382E-1
7.931816084E0,-3.992263675E-1,2.114415169E-1,-4.899902344E-1
7.941862084E0,-3.014225364E-1,1.831355095E-1,-3.385887146E-1
7.951910084E0,-1.810303926E-1,1.064167023E-1,-2.081756592E-1
7.961770084E0,-8.925479650E-2,1.698164940E-1,-1.540145874E-1
7.971756084E0,-1.842385530E-2,2.058596611E-1,-8.768081665E-2
7.981723084E0,1.084941626E-2,2.387275696E-1,-1.743316650E-3
7.991751084E0,8.074408770E-2,2.455897331E-1,2.474536896E-1
8.001764084E0,1.691792011E-1,2.557482719E-1,4.916906357E-1
8.011726084E0,2.981365323E-1,2.112836838E-1,7.777128220E-1
8.021803084E0,3.361240923E-1,1.281566620E-1,1.186816216E0
8.031850084E0,3.359109759E-1,8.666038513E-2,1.699178696E0
8.041885084E0,3.056131899E-1,5.743503571E-2,2.047090530E0
8.051728084E0,1.983593702E-1,6.233835220E-2,2.321025848E0
8.061747084E0,1.596301794E-2,1.843810081E-1,2.296481133E0
8.072035084E0,-2.524017096E-1,3.244066238E-1,2.032096863E0
8.081726084E0,-4.987169504E-1,5.279350281E-1,1.706739426E0
8.091876084E0,-6.365229487E-1,7.323975563E-1,1.528553009E0
8.101784084E0,-6.066895723E-1,8.597869873E-1,1.441760063E0
8.111827084E0,-5.212850571E-1,8.686642647E-1,1.383703232E0
8.121748084E0,-5.152125359E-1,8.370943069E-1,1.665570259E0
8.131721084E0,-6.230280399E-1,7.785601616E-1,2.120180130E0
8.141783084E0,-6.694840789E-1,6.761436462E-1,2.883111000E0
8.151966084E0,-5.791382790E-1,2.324538231E-1,3.217100143E0
8.162797084E0,-4.592394531E-1,-1.006388664E-1,3.405361176E0
8.171748084E0,-3.038042486E-1,-4.391317368E-1,3.519785881E0
8.181796084E0,-2.068682611E-1,-7.452237606E-1,3.561088562E0
8.191721084E0,-1.418818831E-1,-1.007485151E0,3.638126373E0
8.201724084E0,-2.181909382E-1,-1.206738949E0,3.473558426E0
8.211873084E0,-3.464030325E-1,-1.354426861E0,3.219909668E0
8.221907084E0,-4.577718079E-1,-1.413229942E0,2.993126869E0
8.231759084E0,-6.797331572E-1,-1.318403006E0,2.654680252E0
8.241733084E0,-8.933559060E-1,-1.263742924E0,2.173120499E0
8.251699084E0,-9.804261923E-1,-1.373175621E0,1.745605469E0
8.261769084E0,-1.035263300E0,-1.412778616E0,1.246878624E0
8.271819084E0,-1.103760600E0,-1.347194195E0,6.658430099E-1
8.281920084E0,-1.101987839E0,-1.319252014E0,1.391944885E-1
8.291656084E0,-1.020454526E0,-1.371622086E0,-4.152097702E-1
8.301731084E0,-9.179561138E-1,-1.398048639E0,-9.397010803E-1
8.311860084E0,-8.325568438E-1,-1.364918947E0,-1.376320839E0
8.322668084E0,-7.237960100E-1,-1.299046278E0,-1.669751167E0
8.331906084E0,-5.772191882E-1,-1.280331135E0,-1.826813698E0
8.341772084E0,-4.266254306E-1,-1.344895840E0,-1.778179169E0
8.351709084E0,-3.303377628E-1,-1.460618734E0,-1.549605846E0
8.362181084E0,-3.693609834E-1,-1.514876127E0,-1.239255428E0
8.371757084E0,-5.098749399E-1,-1.554554939E0,-9.450230598E-1
8.381794084E0,-6.237328053E-1,-1.638145924E0,-6.578021049E-1
8.391764084E0,-6.730972528E-1,-1.703299761E0,-3.768310547E-1
8.401779084E0,-6.539778709E-1,-1.741833448E0,-2.578907013E-1
8.412126084E0,-5.621275902E-1,-1.787096739E0,-3.465099335E-1
8.421729084E0,-4.468119144E-1,-1.828040838E0,-5.139818192E-1
8.433363084E0,-3.964088857E-1,-1.830298424E0,-7.773876190E-1
8.441718084E0,-4.086981416E-1,-1.830992222E0,-1.097843647E0
8.451893084E0,-4.589641094E-1,-1.815809011E0,-1.370064735E0
8.461908084E0,-4.989912808E-1,-1.757547379E0,-1.582499981E0
8.471883084E0,-4.500821233E-1,-1.724960566E0,-1.688092709E0
8.481815084E0,-3.114334345E-1,-1.699466705E0,-1.804118633E0
8.491754084E0,-1.653105319E-1,-1.648488522E0,-1.896669865E0
8.501724084E0,-8.611322939E-2,-1.570718050E0,-1.986634731E0
8.511755084E0,-7.366816700E-2,-1.457317591E0,-2.030710697E0
8.521733084E0,-1.193180159E-1,-1.319096565E0,-2.084707737E0
8.531722084E0,-1.762470752E-1,-1.208182335E0,-2.083439827E0
8.541711084E0,-2.065326273E-1,-1.092791557E0,-1.992668629E0
8.552887084E0,-2.016315460E-1,-9.769654274E-1,-1.838038445E0
8.562307084E0,-1.260739267E-1,-8.793158531E-1,-1.651474953E0
8.571745084E0,-4.519771785E-2,-8.385229111E-1,-1.548102379E0
8.581709084E0,-9.835604578E-3,-7.575926781E-1,-1.363189697E0
8.591747084E0,-1.046370193E-1,-5.685791969E-1,-1.179185390E0
8.601948084E0,-2.686865926E-1,-4.017968178E-1,-1.074035645E0
8.611744084E0,-3.642451167E-1,-3.051443100E-1,-9.124794006E-1
8.621743084E0,-4.554989338E-1,-1.828694344E-1,-7.264113426E-1
8.631749084E0,-4.461828172E-1,-5.538892746E-2,-5.680317879E-1
8.641999084E0,-4.186674654E-1,6.990098953E-2,-2.392129898E-1
8.651723084E0,-2.539760768E-1,1.259164810E-1,-4.878044128E-3
8.661876084E0,-1.517503560E-1,1.585807800E-1,2.341527939E-1
8.673281084E0,-6.265200675E-3,2.865433693E-1,1.075454712E0
8.681749084E0,-3.737652302E-2,3.029580116E-1,1.343324661E0
8.691679084E0,-2.562221885E-2,3.620195389E-1,1.691959381E0
8.701726084E0,-5.356398225E-2,4.053916931E-1,2.153898239E0
8.711763084E0,-3.649316728E-2,5.002622604E-1,2.579879761E0
8.721730084E0,-6.832505763E-2,6.192526817E-1,2.749830246E0
8.731715084E0,-1.355478466E-1,7.655162811E-1,2.926201820E0
8.741920084E0,-1.853393316E-1,8.830161095E-1,3.058083534E0
8.751996084E0,-1.901657283E-1,9.296751022E-1,3.016307831E0
8.761842084E0,-1.470107734E-1,9.730453491E-1,2.837704659E0
8.771790084E0,-1.119815409E-1,1.008991718E0,2.716969490E0
8.781740084E0,-8.291018009E-2,1.027499676E0,2.503278732E0
8.791750084E0,-8.936166763E-3,9.459471703E-1,2.313719749E0
8.801932084E0,7.670432329E-2,7.967033386E-1,2.255741119E0
8.811708084E0,1.452031136E-1,6.706395149E-1,2.262129784E0
8.821731084E0,2.653698921E-1,4.670662880E-1,2.343591690E0
8.831697084E0,4.418386519E-1,2.493243217E-1,2.588161469E0
8.841771084E0,6.508744955E-1,-2.250957489E-2,2.830319405E0
8.851916084E0,8.537157774E-1,-3.523697853E-1,3.036434174E0
8.861856084E0,1.030243397E0,-7.074699402E-1,3.207722664E0
8.871714084E0,1.070283294E0,-1.029982805E0,3.341875076E0
8.883989084E0,9.794810414E-1,-1.296502829E0,3.157344818E0
8.892456084E0,7.803808451E-1,-1.546608210E0,2.800776482E0
8.902253084E0,4.488089085E-1,-1.668578863E0,2.349872589E0
8.911698084E0,1.147832870E-1,-1.631214619E0,1.838715553E0
8.921713084E0,-1.146035567E-1,-1.572839499E0,1.242993355E0
8.931886084E0,-2.033965141E-1,-1.575350285E0,6.385240555E-1
8.941717084E0,-2.608110309E-1,-1.562017918E0,7.313537598E-2
8.951911084E0,-3.228535056E-1,-1.543405533E0,-5.886545181E-1
8.961834084E0,-3.750203252E-1,-1.472883701E0,-1.099671841E0
8.971801084E0,-3.754357994E-1,-1.373858452E0,-1.516178608E0
8.981707084E0,-2.748817801E-1,-1.295478821E0,-1.838272095E0
8.991711084E0,-2.220058069E-2,-1.237002373E0,-2.010949612E0
9.002914084E0,2.552458048E-1,-1.216925859E0,-1.984001637E0
9.011715084E0,5.017895699E-1,-1.172059059E0,-1.787121296E0
9.021826084E0,6.794798374E-1,-1.153162003E0,-1.511431217E0
9.031732084E0,8.263655901E-1,-1.173803091E0,-1.285274029E0
9.042000084E0,9.520947337E-1,-1.219743967E0,-9.731249809E-1
9.051752084E0,9.802474380E-1,-1.213015079E0,-7.837204933E-1
9.061833084E0,9.063248038E-1,-1.171221495E0,-7.301568985E-1
9.071710084E0,8.076626658E-1,-1.087870836E0,-6.605834961E-1
9.081788084E0,6.702256799E-1,-1.083374739E0,-5.991148949E-1
9.091700084E0,4.853100181E-1,-1.113224745E0,-7.270359993E-1
9.101915084E0,2.496965080E-1,-1.098067522E0,-8.841338158E-1
9.111841084E0,5.291089416E-3,-1.015241385E0,-1.084115982E0
9.123474084E0,-1.456494182E-1,-9.304044247E-1,-1.300801277E0
9.131762084E0,-1.664363295E-1,-8.889176846E-1,-1.552318573E0
9.141775084E0,-9.032441676E-2,-8.807511330E-1,-1.846237659E0
9.151734084E0,1.828532666E-3,-8.866593838E-1,-2.046835899E0
9.161752084E0,4.232377559E-2,-8.474988937E-1,-2.121573925E0
9.171804084E0,4.078209400E-3,-7.264866829E-1,-2.012311935E0
9.181705084E0,-1.636398397E-2,-6.158399582E-1,-1.859107971E0
9.191751084E0,-3.151741996E-2,-5.829052925E-1,-1.708991051E0
9.201725084E0,-8.710399270E-2,-5.096530914E-1,-1.577744961E0
9.212185084E0,-2.962028086E-1,-2.130279541E-1,-1.367641449E0
9.221755084E0,-2.905215621E-1,-2.329130173E-1,-1.384643555E0
9.231812084E0,-3.422299922E-1,-7.992267609E-2,-1.334844589E0
9.241735084E0,-3.338394463E-1,-2.601194382E-2,-1.209976673E0
9.251714084E0,-2.314142734E-1,5.158424377E-2,-1.002786160E0
9.261738084E0,-9.384104609E-2,8.114433289E-2,-8.098392487E-1
9.271778084E0,4.536401480E-2,5.194854736E-2,-5.241556168E-1
9.281699084E0,9.871610254E-2,1.997947693E-2,-3.831958771E-2
9.291760084E0,2.284822986E-2,6.324577332E-2,4.622249603E-1
9.301748084E0,-1.251820922E-1,1.042275429E-1,8.367805481E-1
9.311744084E0,-2.930791378E-1,1.315917969E-1,1.294716835E0
9.321723084E0,-4.952522516E-1,2.036323547E-1,1.934918404E0
9.331754084E0,-6.210258603E-1,3.175759315E-1,2.434390068E0
9.341721084E0,-6.856269240E-1,3.643240929E-1,2.841107368E0
9.351731084E0,-7.835071683E-1,3.438835144E-1,3.232597351E0
9.361866084E0,-9.631107450E-1,3.384585381E-1,3.405257225E0
9.372099084E0,-1.144183993E0,3.868203163E-1,3.415461540E0
9.381865084E0,-1.266172647E0,5.130195618E-1,3.219611168E0
9.391700084E0,-1.348366618E0,6.357960701E-1,2.942005157E0
9.401962084E0,-1.278853059E0,5.983705521E-1,2.758193970E0
9.411769084E0,-1.097373724E0,4.375181198E-1,2.582174301E0
9.421712084E0,-8.616263270E-1,1.800255775E-1,2.414100647E0
9.431704084E0,-6.521059275E-1,-9.674882889E-2,2.309475899E0
9.441735084E0,-4.557813704E-1,-3.038473129E-1,2.237649918E0
9.451705084E0,-2.770911455E-1,-5.590910912E-1,2.309589386E0
9.461737084E0,-1.183985621E-1,-8.153858185E-1,2.362115860E0
9.471658084E0,-3.987637535E-2,-1.014427185E0,2.228280067E0
9.481715084E0,-9.086465836E-2,-1.274370193E0,2.171453476E0
9.491895084E0,-3.402291536E-1,-1.454859018E0,2.073361397E0
9.501721084E0,-7.751119733E-1,-1.485098362E0,1.879306793E0
9.512088084E0,-1.193916798E0,-1.385400534E0,1.613793373E0
9.521799084E0,-1.486115694E0,-1.335408688E0,1.404603004E0
9.531831084E0,-1.633877993E0,-1.318206310E0,1.035008430E0
9.541768084E0,-1.739447236E0,-1.307948828E0,6.892461777E-1
9.551668084E0,-1.822321415E0,-1.284770489E0,4.091720581E-1
9.561717084E0,-1.885448933E0,-1.248383522E0,1.790275574E-1
9.572921084E0,-1.867253184E0,-1.208472490E0,2.401256561E-2
9.581723084E0,-1.668035388E0,-1.259585381E0,-6.236553192E-2
9.591713084E0,-1.337718964E0,-1.436132431E0,-5.710506439E-2
9.601688084E0,-1.074087739E0,-1.559013367E0,6.245613098E-2
9.611811084E0,-9.791525006E-1,-1.568984032E0,1.704607010E-1
9.621777084E0,-1.049719334E0,-1.588615417E0,3.291177750E-1
9.631715084E0,-1.156879783E0,-1.527773619E0,4.938526154E-1
9.641710084E0,-1.233859897E0,-1.485256195E0,5.198373795E-1
9.651797084E0,-1.222007036E0,-1.428702831E0,4.165697098E-1
9.661815084E0,-1.103115320E0,-1.355535269E0,2.279796600E-1
9.671712084E0,-8.901104927E-1,-1.288706064E0,-5.667686462E-3
9.681858084E0,-2.291638255E-1,-8.513143063E-1,-5.397415161E-1
9.691691084E0,1.609321833E-1,-6.794316769E-1,-1.006178379E0
9.702142084E0,3.415086567E-1,-6.837134361E-1,-1.394146442E0
9.711756084E0,3.300896883E-1,-7.574503422E-1,-1.652626991E0
9.721736084E0,2.123571038E-1,-7.934682369E-1,-1.825234413E0
9.732948084E0,-1.268481016E-1,-8.610460758E-1,-2.150127888E0
9.741749084E0,-9.976392984E-2,-8.546679020E-1,-2.150294781E0
9.751719084E0,-2.447023988E-1,-8.157820702E-1,-2.302947998E0
9.761715084E0,-2.798255682E-1,-7.781832218E-1,-2.549242496E0
9.771842084E0,-1.807229519E-1,-6.033492088E-1,-2.650634766E0
9.781858084E0,-3.222733736E-2,-5.288805962E-1,-2.796924591E0
9.791833084E0,1.027840376E-1,-5.444772243E-1,-2.834927082E0
9.802389084E0,1.907433867E-1,-5.259275436E-1,-2.790257454E0
9.811874084E0,2.033681870E-1,-4.919157028E-1,-2.696922302E0
9.821708084E0,1.830590367E-1,-4.409403801E-1,-2.532040119E0
9.831705084E0,7.159388065E-2,-3.986449242E-1,-2.327565193E0
9.841726084E0,-1.030407548E-1,-3.294785023E-1,-2.241771221E0
9.851754084E0,-2.639592290E-1,-2.142069340E-1,-2.093806744E0
9.862024084E0,-3.202973604E-1,-6.451320648E-2,-2.081889153E0
9.871717084E0,-3.409423232E-1,5.249977112E-2,-1.862823486E0
9.881737084E0,-2.848138213E-1,1.983132362E-1,-1.644016266E0
9.891902084E0,-2.694504857E-1,3.110504150E-1,-1.355701923E0
9.901751084E0,-3.169010282E-1,4.233551025E-1,-1.142804623E0
9.911761084E0,-4.381672740E-1,5.357079506E-1,-8.240137100E-1
9.921711084E0,-5.815733075E-1,6.403889656E-1,-4.672775269E-1
9.931940084E0,-7.073087096E-1,7.399616241E-1,-1.705751419E-1
9.941762084E0,-7.085590363E-1,7.527546883E-1,1.470928192E-1
9.951728084E0,-5.406520963E-1,6.647748947E-1,4.065361023E-1
9.961739084E0,-2.771555185E-1,5.803661346E-1,6.816015244E-1
9.971838084E0,2.315998077E-3,5.612220764E-1,1.036109924E0
9.981730084E0,2.220745087E-1,6.540641785E-1,1.244805336E0
9.991818084E0,4.340641499E-1,6.585054398E-1,1.376956940E0
1.000184508E1,5.271655321E-1,6.317849159E-1,1.565500259E0
1.001180608E1,3.995381594E-1,6.834154129E-1,1.849049568E0
1.002231708E1,2.529571056E-1,7.619962692E-1,1.982820511E0
1.003178008E1,2.273921371E-1,7.068710327E-1,2.058807373E0
1.004171808E1,3.507570624E-1,6.674423218E-1,2.047107697E0
1.005172008E1,3.586615920E-1,7.343750000E-1,2.016143799E0
1.006177108E1,4.156005681E-1,7.690529823E-1,1.958777428E0
1.007177108E1,4.060597718E-1,9.436368942E-1,1.787511826E0
1.008179208E1,4.928801656E-1,8.576173782E-1,1.522765160E0
1.009270408E1,4.546491802E-1,8.552651405E-1,1.035701752E0
1.010173808E1,3.643003106E-1,9.177145958E-1,5.276660919E-1
1.011963708E1,1.946604848E-1,1.009547710E0,1.357269287E-2
1.013169908E1,3.294103742E-1,8.231511116E-1,1.254348755E-1
1.014465308E1,4.632227123E-1,6.557517052E-1,7.033395767E-1
1.016173808E1,7.869769931E-1,3.416323662E-1,2.009216309E0
1.017175708E1,1.055899620E0,-1.215934753E-4,2.989558220E0
1.018177808E1,1.320172548E0,-4.725058079E-1,3.724012375E0
1.019191208E1,1.315817237E0,-8.080198765E-1,4.111926079E0
1.020169808E1,1.128588080E0,-9.762930870E-1,4.231064796E0
1.021174908E1,9.105117917E-1,-1.057878494E0,4.085633278E0
1.022380908E1,6.519434452E-1,-1.122942448E0,3.065155029E0
1.023200608E1,7.242314816E-1,-1.082612991E0,3.054672241E0
1.024172208E1,7.147191763E-1,-1.063355684E0,2.539253235E0
1.025169608E1,7.535961866E-1,-1.050645828E0,2.108230591E0
1.026189608E1,8.337430954E-1,-1.074670553E0,1.654790878E0
1.027170108E1,8.508652449E-1,-1.156937361E0,1.248380661E0
1.028189608E1,8.111455441E-1,-1.203568459E0,9.025478363E-1
1.029172308E1,7.494788170E-1,-1.212762356E0,5.163192749E-1
1.030177308E1,1.021877289E0,-1.239687443E0,-9.553909302E-2
1.031171908E1,1.277649283E0,-1.282974720E0,-3.259677887E-1
1.032216008E1,1.449575186E0,-1.307897568E0,-4.574861526E-1
1.033203208E1,1.409200430E0,-1.286113024E0,-5.326423645E-1
1.034263508E1,1.298195362E0,-1.285262346E0,-5.318222046E-1
1.035169008E1,1.238423347E0,-1.276993752E0,-4.409837723E-1
1.036172308E1,1.259162307E0,-1.313395500E0,-3.528423309E-1
1.037170808E1,1.263639927E0,-1.368972063E0,-2.874174118E-1
1.038172408E1,1.219092727E0,-1.409317970E0,-2.550401688E-1
1.039189008E1,1.177238584E0,-1.390912294E0,-3.442935944E-1
1.040169208E1,1.127094865E0,-1.357856512E0,-5.912570953E-1
1.041177408E1,1.025407553E0,-1.327162266E0,-9.636082649E-1
1.042176508E1,9.156459570E-1,-1.272375822E0,-1.328652382E0
1.043181208E1,8.518276811E-1,-1.208431005E0,-1.646129608E0
1.044170608E1,7.644209266E-1,-1.186068058E0,-2.023431778E0
1.045172208E1,6.858873367E-1,-1.167502880E0,-2.402072906E0
1.046177408E1,6.447219849E-1,-1.174584866E0,-2.600882053E0
1.047167008E1,6.259765625E-1,-1.147004128E0,-2.756557465E0
1.048170508E1,6.314618587E-1,-1.154095411E0,-2.868077755E0
1.049172708E1,7.290447354E-1,-1.135113716E0,-2.894762516E0
1.050172408E1,7.926017046E-1,-1.103264332E0,-2.799451828E0
1.051180908E1,7.866472006E-1,-1.020967484E0,-2.658468723E0
1.052189008E1,7.145006657E-1,-9.813251495E-1,-2.412039280E0
1.053186108E1,6.536074281E-1,-9.483699799E-1,-2.133684635E0
1.054174808E1,5.593042374E-1,-9.083232880E-1,-1.915097713E0
1.055178408E1,4.901119471E-1,-8.359861374E-1,-1.767513752E0
1.056483908E1,4.555348158E-1,-7.631700039E-1,-1.650465012E0
1.058175508E1,5.698313713E-1,-6.518096924E-1,-1.520877361E0
1.059173608E1,7.245504856E-1,-6.057391167E-1,-1.428341389E0
1.060171008E1,9.002711177E-1,-5.240082741E-1,-1.279107094E0
1.061169908E1,1.051757932E0,-4.579730034E-1,-1.218218803E0
1.062181508E1,1.197542429E0,-3.561501503E-1,-9.965934753E-1
1.063474408E1,1.337407470E0,-2.767457962E-1,-9.189395905E-1
1.065170908E1,1.505786538E0,-9.667110443E-2,-7.392687798E-1
1.066210008E1,1.569554567E0,-7.600545883E-2,-6.978192329E-1
1.067180808E1,1.568772197E0,5.725383759E-3,-6.602878571E-1
1.068181308E1,1.475007534E0,1.119856834E-1,-6.921463013E-1
1.069176208E1,1.389539123E0,2.105145454E-1,-6.302399635E-1
1.070172308E1,1.429471254E0,3.512420654E-1,-4.007139206E-1
1.071175308E1,1.474950790E0,5.124678612E-1,-5.116853714E-1
1.072182608E1,1.508987546E0,5.736765862E-1,-6.846442223E-1
1.073171708E1,1.361197948E0,6.665740013E-1,-5.140972137E-1
1.074487008E1,7.081890106E-1,1.081381798E0,3.913345337E-1
1.076174008E1,5.017179847E-1,1.059918880E0,1.083513260E0
1.077172508E1,3.142264485E-1,1.014432430E0,1.970876694E0
1.078182108E1,1.487601399E-1,1.031088829E0,2.698521614E0
1.079213308E1,1.727437973E-2,9.990162849E-1,3.272018433E0
1.080169108E1,-7.278490067E-2,8.915834427E-1,3.486621857E0
1.081172308E1,-1.966785192E-1,8.645257950E-1,3.326046944E0
1.082225408E1,-3.714129329E-1,1.040774822E0,2.592995644E0
1.083177908E1,-3.324832320E-1,1.102669716E0,2.621619225E0
1.084172608E1,-1.586561799E-1,1.046088219E0,1.902477264E0
1.085168308E1,4.617690742E-1,9.580292702E-1,1.795587540E0
1.086194708E1,8.600950241E-1,5.595984459E-1,2.182805061E0
1.087177608E1,1.188670397E0,8.842325211E-2,2.462615967E0
1.088182408E1,1.431866884E0,-4.905047417E-1,2.620938301E0
1.089173208E1,1.393920898E0,-1.012000322E0,2.819701195E0
1.090177508E1,1.001623631E0,-1.358158350E0,3.016734123E0
1.091183408E1,4.408377409E-1,-1.614021301E0,3.143573761E0
1.092193908E1,-1.029132605E-1,-1.803226948E0,3.017350197E0
1.093173108E1,-5.045838356E-1,-1.930945873E0,2.696597099E0
1.094179808E1,-7.438387275E-1,-2.017137289E0,2.335319519E0
1.095171908E1,-9.681255221E-1,-2.027746201E0,1.914301872E0
1.096184608E1,-1.141080976E0,-1.967078209E0,1.477634430E0
1.097189208E1,-1.270799875E0,-1.894207478E0,9.246397018E-1
1.098191208E1,-1.361670613E0,-1.831162214E0,2.775163651E-1
1.099178508E1,-1.393164158E0,-1.733492851E0,-3.295488358E-1
1.100176708E1,-1.294670820E0,-1.618312597E0,-9.823002815E-1
1.101172008E1,-1.016453981E0,-1.572815180E0,-1.517523766E0
1.102222008E1,-6.115115285E-1,-1.542663813E0,-1.828625679E0
1.103172508E1,-1.485479474E-1,-1.553044319E0,-2.081295490E0
1.104179508E1,2.272494733E-1,-1.585850000E0,-2.177941799E0
1.105171008E1,4.234424233E-1,-1.601042032E0,-2.172336102E0
1.106180508E1,4.306459129E-1,-1.664570570E0,-2.000180244E0
1.107171508E1,2.659566402E-1,-1.787505388E0,-1.736756802E0
1.108188308E1,2.941787243E-4,-1.946571827E0,-1.354198456E0
1.109175008E1,-2.633148134E-1,-2.089863300E0,-9.924817085E-1
1.110173208E1,-4.497983158E-1,-2.204285383E0,-6.982221603E-1
1.111172808E1,-5.447587967E-1,-2.256223917E0,-4.803304672E-1
1.112172808E1,-5.554515123E-1,-2.214721203E0,-2.091312408E-1
1.113171708E1,-4.534486532E-1,-2.175810337E0,-7.335758209E-2
1.114172008E1,-2.746388614E-1,-2.174345255E0,-5.308723450E-2
1.115183308E1,-1.200262904E-1,-2.118126869E0,-2.466773987E-2
1.116182908E1,-1.528614759E-2,-1.935948372E0,-5.990600586E-2
1.117174008E1,4.702988267E-2,-1.721157074E0,-1.923561096E-1
1.118173208E1,1.499083638E-1,-1.518063068E0,-3.214721680E-1
1.119302708E1,2.398524284E-1,-1.269035816E0,-3.773217201E-1
1.120180408E1,3.184504509E-1,-1.043493748E0,-5.602369308E-1
1.121175708E1,3.970044851E-1,-8.865942955E-1,-7.884969711E-1
1.122175108E1,4.799407721E-1,-7.174878120E-1,-8.991632462E-1
1.123177608E1,4.810353518E-1,-5.039849281E-1,-8.817691803E-1
1.124173208E1,4.632493258E-1,-2.734074593E-1,-8.146710396E-1
1.125193808E1,4.904529452E-1,-1.442956924E-1,-6.171708107E-1
1.126171108E1,5.347608924E-1,-1.098504066E-1,-2.876806259E-1
1.127196308E1,4.801471829E-1,-5.789947510E-2,1.342506409E-1
1.128181608E1,3.087491393E-1,-6.244659424E-3,4.179439545E-1
1.129178108E1,-1.291871071E-2,8.510398865E-2,7.102575302E-1
1.130320508E1,-4.288376272E-1,2.630400658E-1,1.178540230E0
1.131183208E1,-7.985379100E-1,4.172801971E-1,1.161840439E0
1.132183908E1,-1.011875510E0,4.807667732E-1,1.339142799E0
1.133179108E1,-1.041393042E0,5.550351143E-1,1.596826553E0
1.134173808E1,-1.081569672E0,6.538696289E-1,2.013316154E0
1.135176408E1,-9.967811108E-1,7.860379219E-1,2.512593269E0
1.136285608E1,-2.368672043E-1,7.810044289E-1,3.417479515E0
1.137177408E1,-3.177509904E-1,8.232693672E-1,3.391441345E0
1.138176608E1,8.716741204E-2,9.605989456E-1,4.279892921E0
1.139227508E1,6.333828568E-1,7.710571289E-1,4.290517807E0
1.140185508E1,5.853888988E-1,7.995643616E-1,3.895940781E0
1.141210308E1,4.649667144E-1,8.022074699E-1,3.453025818E0
1.142186308E1,4.137960076E-1,6.723322868E-1,3.103350639E0
1.143175508E1,4.195354581E-1,5.372443199E-1,2.827271461E0
1.144250608E1,4.177567065E-1,3.769230843E-1,2.775213242E0
1.145180708E1,5.941569209E-1,-2.336740494E-2,2.955654144E0
1.146174208E1,9.284563065E-1,-6.197314262E-1,3.283841133E0
1.147176808E1,1.220973015E0,-1.346298695E0,3.624665260E0
1.148182108E1,1.337834597E0,-1.844781637E0,4.062175751E0
1.149205708E1,1.276484609E0,-2.156436443E0,4.189248085E0
1.150184208E1,1.048348665E0,-2.262179136E0,4.108463287E0
1.151229108E1,8.687810302E-1,-2.413547516E0,4.042313576E0
1.152262908E1,7.884271145E-1,-2.574381351E0,3.528988838E0
1.153605508E1,6.387577653E-1,-2.530844688E0,2.838150978E0
1.155176708E1,-3.534886241E-2,-2.244968653E0,1.384178162E0
1.156224208E1,-2.743669152E-1,-2.162686825E0,6.403970718E-1
1.157181208E1,-4.194514751E-1,-2.080089092E0,-6.390094757E-2
1.158181008E1,-4.413800836E-1,-2.055182695E0,-7.738356590E-1
1.159176108E1,-3.719074130E-1,-2.066187620E0,-1.396826744E0
1.160184208E1,-2.058716863E-1,-2.027107716E0,-1.905190945E0
1.161181808E1,4.120761901E-2,-1.968017101E0,-2.133249283E0
1.162184808E1,3.315345347E-1,-1.999706507E0,-2.068933964E0
1.163175608E1,6.037091017E-1,-2.061217546E0,-1.804047585E0
1.164173708E1,6.920926571E-1,-2.134060383E0,-1.456084728E0
1.165175608E1,5.968964100E-1,-2.154608488E0,-1.031193256E0
1.166183308E1,3.808984160E-1,-2.114778996E0,-5.895400047E-1
1.167343608E1,1.694458872E-1,-2.057707310E0,-1.277027130E-1
1.168174808E1,4.685695469E-2,-2.006740093E0,2.735300064E-1
1.169269708E1,3.730222583E-2,-1.957259417E0,4.835166931E-1
1.170181208E1,1.107802689E-1,-1.894233704E0,5.290622711E-1
1.171180308E1,2.398655117E-1,-1.862504721E0,4.661550522E-1
1.172178408E1,4.071968198E-1,-1.855003119E0,2.635517120E-1
1.173172808E1,5.427606702E-1,-1.840479136E0,-1.300516129E-1
1.174172608E1,5.657501817E-1,-1.755002260E0,-5.616188049E-1
1.175174208E1,5.084767938E-1,-1.630374193E0,-1.060125828E0
1.176175108E1,4.401375353E-1,-1.529751778E0,-1.512763500E0
1.177173008E1,3.276100755E-1,-1.447151899E0,-1.914988995E0
1.178187808E1,2.270535827E-1,-1.374128580E0,-2.183139801E0
1.179175108E1,2.261770070E-1,-1.399405718E0,-2.288179874E0
1.180223808E1,2.170973420E-1,-1.352213383E0,-2.352457047E0
1.181181208E1,1.929585636E-1,-1.275197506E0,-2.381499767E0
1.182186908E1,1.544610113E-1,-1.167593718E0,-2.324344158E0
1.183170408E1,1.837356240E-1,-1.061490536E0,-2.126142979E0
1.184178508E1,1.908990890E-1,-9.976847172E-1,-2.010765076E0
1.185172708E1,2.390671968E-1,-9.515426159E-1,-1.907767296E0
1.186174908E1,2.617766857E-1,-9.092240334E-1,-1.711956978E0
1.187235908E1,2.491676509E-1,-7.977871895E-1,-1.585383415E0
1.188175708E1,2.177074552E-1,-6.865410805E-1,-1.455099106E0
1.189180508E1,1.426532269E-1,-5.770306587E-1,-1.298890591E0
1.190176808E1,5.244462192E-2,-4.973173141E-1,-1.198600769E0
1.191174108E1,2.150303125E-2,-4.661335945E-1,-1.087433338E0
1.192177408E1,-7.021240890E-2,-3.625116348E-1,-9.785637856E-1
1.193173508E1,-1.056625545E-1,-3.103976250E-1,-8.052477837E-1
1.194222508E1,-8.963387460E-2,-2.300062180E-1,-4.764375687E-1
1.195179808E1,9.099543095E-4,-1.989893913E-1,-9.655189514E-2
1.196173808E1,1.796208024E-1,-2.190351486E-1,4.519090652E-1
1.197172808E1,3.017923832E-1,-2.544155121E-1,1.159125328E0
1.198200608E1,3.004671931E-1,-2.510032654E-1,1.931172371E0
1.199260008E1,2.138110995E-1,-2.351145744E-1,2.606120110E0
1.200183708E1,1.869644411E-2,-1.829643250E-1,2.999298096E0
1.201173708E1,-3.177010119E-1,-6.934165955E-2,3.344820976E0
1.202504608E1,-6.517446041E-1,1.829528809E-2,3.524890900E0
1.204194008E1,-8.711748719E-1,1.250481606E-1,3.418802261E0
1.205173108E1,-8.639707565E-1,2.402796745E-1,3.246733665E0
1.206182808E1,-7.702421546E-1,3.355379105E-1,2.992788315E0
1.207173008E1,-5.743650198E-1,2.557272911E-1,2.780387878E0
1.208205808E1,-2.877858579E-1,1.241602898E-1,2.644669533E0
1.209185008E1,1.255421340E-2,4.915571213E-2,2.822247505E0
1.210178308E1,2.488279045E-1,-3.415441513E-2,3.030517578E0
1.211176008E1,5.091019273E-1,-1.983852386E-1,3.148815155E0
1.212205608E1,8.248561621E-1,-5.035357475E-1,3.368797302E0
1.213176408E1,1.098411322E0,-8.706796169E-1,3.572814941E0
1.214187708E1,1.138040781E0,-1.239298344E0,3.478782654E0
1.215199908E1,8.936334252E-1,-1.479881287E0,3.267987251E0
1.216173408E1,3.612577021E-1,-1.597680807E0,3.042059898E0
1.217177408E1,-1.585715860E-1,-1.541272163E0,2.675822258E0
1.218175508E1,-5.616406202E-1,-1.488141298E0,2.138057709E0
1.219173408E1,-8.588634729E-1,-1.526230335E0,1.612937927E0
1.220171608E1,-1.080624938E0,-1.558885574E0,1.198758125E0
1.221180108E1,-1.261765838E0,-1.529024601E0,7.608776093E-1
1.222177208E1,-1.393669367E0,-1.469493628E0,4.273443222E-1
1.223221308E1,-1.398378253E0,-1.446627378E0,1.747856140E-1
1.224175008E1,-1.222318769E0,-1.521924019E0,-3.450393677E-2
1.225176608E1,-9.363929033E-1,-1.610403299E0,-2.281131744E-1
1.226203208E1,-6.353108883E-1,-1.625541925E0,-3.624420166E-1
1.227174508E1,-3.302335739E-1,-1.613058329E0,-3.310136795E-1
1.228180108E1,-1.108848453E-1,-1.619102240E0,-3.219251633E-1
1.229173008E1,-6.250888109E-3,-1.639414549E0,-3.336515427E-1
1.230171508E1,-6.144991517E-2,-1.642676830E0,-4.333200455E-1
1.231411108E1,-9.487250447E-2,-1.220441103E0,-7.940540314E-1
1.233171808E1,-2.221122980E-1,-1.102041245E0,-1.255557060E0
1.234195608E1,-2.697250545E-1,-1.141713858E0,-1.528487682E0
1.235172708E1,-3.264239132E-1,-1.170645952E0,-1.689349651E0
1.236187408E1,-3.331216574E-1,-1.157070160E0,-1.692855358E0
1.237168608E1,-3.049529195E-1,-1.199190855E0,-1.719726562E0
1.238181208E1,-2.321243286E-1,-1.231495142E0,-1.649554253E0
1.239182808E1,-1.594806910E-1,-1.243580341E0,-1.522408962E0
1.240180808E1,-8.122152090E-2,-1.227677345E0,-1.452569962E0
1.241175008E1,-8.812397718E-3,-1.180486679E0,-1.441152573E0
1.242186808E1,3.552743793E-2,-1.121677637E0,-1.510286331E0
1.243177508E1,8.913901448E-2,-1.133691311E0,-1.666560173E0
1.244171908E1,1.034076214E-1,-1.105929136E0,-1.797102928E0
1.245175108E1,6.485271454E-2,-1.027103186E0,-1.921307087E0
1.246172608E1,-3.710281849E-2,-9.098641872E-1,-2.123103142E0
1.247174208E1,-2.671029866E-1,-6.535334587E-1,-2.144514084E0
1.248177208E1,-3.045021296E-1,-5.669112206E-1,-2.130229950E0
1.249223708E1,-3.063194156E-1,-4.332249165E-1,-2.045020580E0
1.250170908E1,-3.417008221E-1,-2.841804028E-1,-1.867937565E0
1.251175008E1,-3.639183342E-1,-1.693384647E-1,-1.530564785E0
1.252174608E1,-3.741765618E-1,-4.073882103E-2,-1.154445648E0
1.253174908E1,-3.190239966E-1,7.165122032E-2,-8.478612900E-1
1.254173208E1,-2.853989899E-1,1.047303677E-1,-5.799713135E-1
1.255174208E1,-2.801044881E-1,1.870827675E-1,-3.115034103E-1
1.256173808E1,-3.258304894E-1,3.040001392E-1,-9.955310822E-2
1.257168308E1,-3.038200140E-1,4.149982929E-1,2.404565811E-1
1.258178408E1,-2.156755626E-1,4.317798615E-1,4.776239395E-1
1.259362208E1,-8.956187963E-2,3.953361511E-1,8.075809479E-1
1.260179808E1,-4.870951176E-2,4.058389664E-1,9.942998886E-1
1.261172508E1,-8.041426539E-2,5.056867599E-1,1.320818901E0
1.262174608E1,-1.206964850E-1,5.732140541E-1,1.578879356E0
1.263178508E1,-9.102076292E-2,5.479283333E-1,1.758996010E0
1.264173608E1,1.191517711E-2,5.052947998E-1,1.871882439E0
1.265168408E1,8.172070980E-2,4.788532257E-1,1.926799774E0
1.266181408E1,2.361422777E-2,4.886555672E-1,2.001270294E0
1.267184308E1,-2.381491661E-1,5.925540924E-1,2.054970741E0
1.268224108E1,-5.694919229E-1,7.919514179E-1,2.047566414E0
1.269188108E1,-7.171667218E-1,8.209955692E-1,1.944105148E0
1.270192108E1,-6.678962708E-1,6.903409958E-1,1.725242615E0
1.271172808E1,-4.186624587E-1,6.114120483E-1,1.870444298E0
1.272215508E1,-1.518238485E-1,6.977148056E-1,1.962020874E0
1.273192808E1,2.621221244E-1,5.477125645E-1,2.269136429E0
1.274216108E1,6.094732285E-1,2.266366482E-1,2.775997162E0
1.275183408E1,8.265354633E-1,-9.707689285E-2,3.280603409E0
1.276196408E1,1.014351964E0,-4.725656509E-1,3.604412079E0
1.277174408E1,1.133011580E0,-8.900046349E-1,3.729290962E0
1.278172908E1,1.083202481E0,-1.215053320E0,3.682196617E0
1.279185108E1,9.331669807E-1,-1.292063951E0,3.341639519E0
1.280173008E1,7.973226309E-1,-1.295823097E0,2.944126129E0
1.281174508E1,7.454926968E-1,-1.334806919E0,2.552279472E0
1.282176608E1,7.038197517E-1,-1.375323772E0,2.231765747E0
1.283173108E1,7.070363760E-1,-1.366246939E0,2.074206352E0
1.284175508E1,7.980129719E-1,-1.358032942E0,1.872975349E0
1.285169908E1,9.784603119E-1,-1.445875883E0,1.558875084E0
1.286171008E1,1.159976721E0,-1.547780037E0,1.170585632E0
1.287172708E1,1.231980085E0,-1.540785074E0,7.504177094E-1
1.288178108E1,1.163443208E0,-1.437568426E0,3.145465851E-1
1.289175308E1,1.104477882E0,-1.327658892E0,-9.194755554E-2
1.290170608E1,1.145762682E0,-1.290992260E0,-4.389247894E-1
1.291213808E1,1.245856285E0,-1.209197760E0,-7.006711960E-1
1.292184908E1,1.339469433E0,-1.130766392E0,-9.530220032E-1
1.293174308E1,1.405803680E0,-1.079344511E0,-1.148823261E0
1.294204608E1,1.455514193E0,-1.051371336E0,-1.267585278E0
1.295170308E1,1.474740505E0,-1.041046381E0,-1.355056286E0
1.296174408E1,1.464177728E0,-1.062898159E0,-1.464170456E0
1.297170308E1,1.427418113E0,-1.113650322E0,-1.509505749E0
1.298171108E1,1.286853075E0,-1.141937971E0,-1.518429279E0
1.299234108E1,8.232269287E-1,-1.074089527E0,-1.448843002E0
1.300170608E1,8.611214757E-1,-1.078727722E0,-1.438087463E0
1.301171208E1,5.207576156E-1,-9.993138313E-1,-1.458303452E0
1.302169308E1,4.659659266E-1,-9.234311581E-1,-1.497157574E0
1.303182208E1,4.323707223E-1,-8.671436310E-1,-1.462575436E0
1.304290808E1,4.691244066E-1,-7.912213802E-1,-1.489863873E0
1.305172408E1,4.982965887E-1,-7.786014080E-1,-1.489265919E0
1.306170508E1,5.078631639E-1,-6.721026897E-1,-1.479388237E0
1.307172708E1,4.833705425E-1,-5.947282314E-1,-1.641581535E0
1.308176108E1,4.547847807E-1,-5.316421986E-1,-1.807534218E0
1.309272808E1,3.933465481E-1,-4.710230827E-1,-1.906732082E0
1.310169808E1,2.782235146E-1,-3.543722630E-1,-1.873003006E0
1.311171008E1,2.101559043E-1,-2.572054863E-1,-1.868761063E0
1.312186308E1,2.429119945E-1,-2.441263199E-1,-1.614850998E0
1.313179108E1,3.101214767E-1,-2.112860680E-1,-1.332179546E0
1.314198608E1,3.979616761E-1,-2.242031097E-1,-1.048127174E0
1.315170708E1,4.920612276E-1,-2.234075069E-1,-7.815732956E-1
1.316176708E1,5.432384014E-1,-2.254307270E-1,-5.840578079E-1
1.317175808E1,5.748201609E-1,-1.711564064E-1,-4.310941696E-1
1.318238308E1,5.859014988E-1,-1.316101551E-1,-2.829465866E-1
1.319178108E1,6.251292229E-1,-1.525814533E-1,-1.975202560E-1
1.320179008E1,6.293146610E-1,-1.885085106E-1,-1.402072906E-1
1.321171308E1,5.966248512E-1,-1.336340904E-1,-7.679557800E-2
1.322172308E1,4.833420217E-1,-2.389049530E-2,-1.297483444E-1
1.323179408E1,3.317188025E-1,8.850097656E-2,-1.640853882E-1
1.324339308E1,1.395959258E-1,2.054629326E-1,-8.517265320E-2
1.325176608E1,-4.825711250E-2,3.344721794E-1,1.814937592E-1
1.326174108E1,-1.248293519E-1,3.940052986E-1,6.444206238E-1
1.327289308E1,-9.821999073E-2,3.601293564E-1,1.163454056E0
1.328221308E1,-4.180485010E-2,3.143868446E-1,1.647930145E0
1.329181208E1,-2.070806026E-1,3.469381332E-1,2.268815994E0
1.330170408E1,-4.345699549E-1,3.050975800E-1,2.754603386E0
1.331174708E1,-5.722365379E-1,2.524251938E-1,2.994024277E0
1.332251008E1,-6.485376954E-1,2.833089828E-1,2.798666000E0
1.333188208E1,-7.540438771E-1,5.127611160E-1,2.467130661E0
1.334171508E1,-8.222942948E-1,7.749094963E-1,2.040974617E0
1.335174108E1,-7.369222045E-1,9.200062752E-1,1.668485641E0
1.336185408E1,-5.185956359E-1,9.227700233E-1,1.628897667E0
1.337193008E1,-2.471194863E-1,8.393993378E-1,1.725970268E0
1.338171308E1,-5.684977770E-2,6.116514206E-1,2.036320686E0
1.339170508E1,2.578615546E-1,9.109210968E-2,2.522362709E0
1.340171708E1,3.976204395E-1,-5.075116158E-1,3.169706345E0
1.341197708E1,2.081345320E-1,-9.479577541E-1,3.698886871E0
1.342177708E1,-1.401398778E-1,-1.343133688E0,3.904090881E0
1.343172608E1,-6.036805511E-1,-1.619720221E0,3.884086609E0
1.344243508E1,-1.061941147E0,-1.701796293E0,3.699622154E0
1.345174008E1,-1.390091181E0,-1.640353203E0,3.286964417E0
1.346175208E1,-1.565486193E0,-1.560143471E0,2.643176079E0
1.347174108E1,-1.587858200E0,-1.482563257E0,1.960956573E0
1.348181208E1,-1.552019715E0,-1.324695587E0,1.225881577E0
1.349175108E1,-1.407385111E0,-1.222735643E0,3.389873505E-1
1.350172008E1,-1.206517458E0,-1.165911674E0,-4.915533066E-1
1.351173008E1,-1.050736427E0,-1.079986095E0,-1.133223534E0
1.352215708E1,-9.181932807E-1,-1.025042295E0,-1.549702168E0
1.353182608E1,-7.174512148E-1,-9.860920906E-1,-1.779993057E0
1.354173408E1,-2.236652970E-1,-9.732210636E-1,-1.782771111E0
1.355173008E1,-6.460338831E-2,-1.138821602E0,-1.446864128E0
1.356177908E1,-2.311259508E-2,-1.184770584E0,-1.181714058E0
1.357249408E1,-1.068659425E-1,-1.237148762E0,-9.366831779E-1
1.358178408E1,-2.591891289E-1,-1.301251411E0,-6.198291779E-1
1.359254108E1,-4.747020602E-1,-1.311343193E0,-4.239311218E-1
1.360170308E1,-6.515760422E-1,-1.320699453E0,-3.377771378E-1
1.361203608E1,-7.509769201E-1,-1.371304035E0,-3.217554092E-1
1.362180308E1,-7.945528030E-1,-1.421817064E0,-3.825578690E-1
1.363173208E1,-8.154568672E-1,-1.436888695E0,-5.865631104E-1
1.364210108E1,-8.723233342E-1,-1.440695763E0,-8.631505966E-1
1.365179408E1,-9.005842209E-1,-1.376726866E0,-1.132788181E0
1.366259008E1,-8.743625879E-1,-1.293522358E0,-1.447164059E0
1.367245508E1,-7.796815038E-1,-1.188035011E0,-1.815668106E0
1.368174408E1,-6.015118957E-1,-1.131626606E0,-2.111669064E0
1.369175408E1,-4.012384415E-1,-1.106933594E0,-2.233022213E0
1.370175208E1,-2.585813999E-1,-1.028385162E0,-2.344270229E0
1.371171808E1,-1.645167470E-1,-9.310698509E-1,-2.376966476E0
1.372180408E1,-7.471591234E-2,-8.283514977E-1,-2.211690426E0
1.373187508E1,-7.981061935E-5,-7.206740379E-1,-2.109144211E0
1.374175608E1,1.036496162E-1,-6.657719612E-1,-1.980712891E0
1.375191708E1,1.927747428E-1,-6.166207790E-1,-1.837934971E0
1.376170408E1,2.082833946E-1,-5.311684608E-1,-1.802379608E0
1.377534808E1,1.390888989E-1,-4.405882359E-1,-1.755529881E0
1.379200108E1,-9.874373674E-2,-2.485556602E-1,-1.655019760E0
1.380171108E1,-1.707952023E-1,-1.858203411E-1,-1.630006790E0
1.381172308E1,-1.636899114E-1,-1.662483215E-1,-1.470946789E0
1.382188608E1,-1.951356530E-1,-1.385540962E-1,-1.305161953E0
1.383174108E1,-2.473541498E-1,-9.724044800E-2,-1.105396271E0
1.384171108E1,-3.235054016E-1,-3.887844086E-2,-8.283758163E-1
1.385170808E1,-3.788470030E-1,6.473112106E-2,-5.540256500E-1
1.386177208E1,-4.876922369E-1,1.610321999E-1,-3.555030823E-1
1.387174008E1,-5.509089828E-1,2.538266182E-1,-1.093835831E-1
1.388174708E1,-5.646352768E-1,3.420448303E-1,1.662120819E-1
1.389221908E1,-6.300767660E-1,4.814319611E-1,4.411821365E-1
1.390173208E1,-7.239078879E-1,5.830717087E-1,8.780164719E-1
1.391173308E1,-7.802633643E-1,6.382842064E-1,1.257776260E0
1.392172508E1,-8.416256309E-1,6.386308670E-1,1.685164452E0
1.393243608E1,-8.861699700E-1,6.457726955E-1,2.054547310E0
1.394177308E1,-9.097622037E-1,5.842978954E-1,2.402729988E0
1.395181808E1,-8.918055892E-1,4.945156574E-1,2.764253616E0
1.396179308E1,-8.500069976E-1,5.206646919E-1,2.940810204E0
1.397192108E1,-8.762071133E-1,5.895183086E-1,2.973014832E0
1.398227508E1,-8.389146328E-1,6.592612267E-1,2.958682060E0
1.399172308E1,-7.797052860E-1,5.894124508E-1,2.617020607E0
1.400173608E1,-7.595320940E-1,5.535194874E-1,2.232688904E0
1.401176008E1,-7.124171853E-1,4.909811020E-1,1.726853371E0
1.402176008E1,-6.665620804E-1,2.989547253E-1,1.240746498E0
1.403174408E1,-5.957315564E-1,1.238346100E-1,1.043815613E0
1.404172408E1,-4.662908912E-1,-1.169388294E-1,1.083468437E0
1.405171908E1,-1.689140797E-1,-5.246813297E-1,1.494731903E0
1.406185308E1,1.914098263E-1,-9.681963921E-1,2.271311760E0
1.407324008E1,5.259511471E-1,-1.959313393E0,3.855874062E0
1.408173108E1,3.724336624E-1,-1.828073025E0,4.593953133E0
1.409173908E1,1.176495552E-1,-2.477530003E0,4.964617729E0
1.410173208E1,-1.439953446E-1,-2.491932869E0,4.795233727E0
1.411175208E1,-3.032209873E-1,-2.416341305E0,4.055381775E0
1.412178108E1,-3.246009350E-1,-2.226768255E0,3.266218185E0
1.413321008E1,-3.202021122E-1,-1.883256197E0,2.534400940E0
1.414175808E1,-1.660223007E-1,-1.595065236E0,1.473864555E0
1.415171508E1,2.041393518E-1,-1.467916012E0,4.827270508E-1
1.416173508E1,6.107406020E-1,-1.348749161E0,-2.129077911E-1
1.417173908E1,9.371987581E-1,-1.244429231E0,-8.607339859E-1
1.418201008E1,1.170441389E0,-1.191617489E0,-1.296964169E0
1.419207208E1,1.248085737E0,-1.156275272E0,-1.443576336E0
1.420171508E1,1.155053616E0,-1.111798048E0,-1.485651493E0
1.421173608E1,9.924632907E-1,-1.112950087E0,-1.387874126E0
1.422173508E1,7.960373163E-1,-1.149545670E0,-1.160238266E0
1.423179508E1,5.689776540E-1,-1.191946030E0,-9.865207672E-1
1.424175008E1,3.410677910E-1,-1.219694853E0,-8.392934799E-1
1.425175608E1,6.038963795E-2,-1.200872660E0,-8.008241653E-1
1.426202008E1,-1.973137856E-1,-1.169952154E0,-8.406639099E-1
1.427184408E1,-3.867495060E-1,-1.129421473E0,-9.064903259E-1
1.428172408E1,-5.414183140E-1,-1.083322287E0,-9.578933716E-1
1.429180108E1,-6.469446421E-1,-1.011094093E0,-9.820804596E-1
1.430177008E1,-6.635116339E-1,-9.201695919E-1,-9.941797256E-1
1.431173408E1,-5.581886768E-1,-8.794867992E-1,-1.011036873E0
1.432173208E1,-3.838900328E-1,-8.996727467E-1,-1.061124802E0
1.433171508E1,-2.553064823E-1,-8.829939365E-1,-1.027945518E0
1.434171008E1,-1.940544844E-1,-8.592991829E-1,-1.048545837E0
1.435171508E1,-1.881967783E-1,-8.984317780E-1,-1.083068848E0
1.436180008E1,-2.557832599E-1,-9.321808815E-1,-1.217396736E0
1.437171008E1,-4.236832261E-1,-9.400854111E-1,-1.377049923E0
1.438216208E1,-5.952873826E-1,-8.752093315E-1,-1.559110165E0
1.439184508E1,-6.762677431E-1,-8.184359074E-1,-1.730459690E0
1.440225108E1,-6.683436632E-1,-7.702598572E-1,-1.930029869E0
1.441171208E1,-5.473673940E-1,-7.616186142E-1,-2.149436474E0
1.442173108E1,-4.164319038E-1,-7.221107483E-1,-2.208065987E0
1.443173408E1,-2.736461759E-1,-6.069622040E-1,-2.163451195E0
1.444172208E1,-5.075210333E-2,-5.110337734E-1,-1.887320518E0
1.445170908E1,1.771541238E-1,-4.534173012E-1,-1.615516663E0
1.446178208E1,3.749753237E-1,-3.999702930E-1,-1.279347897E0
1.447174608E1,5.723606348E-1,-3.588976860E-1,-9.579968452E-1
1.448174908E1,7.697273493E-1,-3.729646206E-1,-6.565170288E-1
1.449170008E1,9.032989740E-1,-3.942832947E-1,-4.671573639E-1
1.450171608E1,9.074081779E-1,-3.340976238E-1,-3.306541443E-1
1.451179608E1,8.412436247E-1,-2.351274490E-1,-3.405675888E-1
1.452176008E1,7.327374220E-1,-1.905660629E-1,-3.639793396E-1
1.453175008E1,6.260473728E-1,-1.205301285E-1,-3.389720917E-1
1.454172408E1,4.978016317E-1,-1.210589409E-1,-2.091464996E-1
1.455192808E1,3.645211458E-1,-1.089806557E-1,6.170558929E-2
1.456175308E1,1.506042778E-1,-3.950977325E-2,4.988613129E-1
1.457171408E1,-2.428615093E-2,3.175735474E-3,9.436597824E-1
1.458172908E1,-1.098895669E-1,-5.163192749E-3,1.482682228E0
1.459175808E1,-9.393429756E-2,2.743434906E-2,1.948203087E0
1.460174608E1,-5.671602488E-2,9.310960770E-2,2.167079926E0
1.461169008E1,-3.689616919E-2,1.176285744E-1,2.236483574E0
1.462181108E1,-2.112022042E-1,1.627459526E-1,1.805880547E0
1.463187508E1,-4.951103926E-1,3.612880707E-1,1.489904404E0
1.464173208E1,-8.526809812E-1,5.431361198E-1,1.252354622E0
1.465170908E1,-1.156825304E0,6.980648041E-1,1.323483467E0
1.466171008E1,-1.303361416E0,7.030000687E-1,1.406698227E0
1.467169308E1,-1.308935046E0,6.538782120E-1,1.718723297E0
1.468212008E1,-1.235432386E0,5.694761276E-1,1.975437164E0
1.469187908E1,-1.162190437E0,4.953112602E-1,2.478931427E0
1.470173808E1,-1.066709161E0,2.930068970E-1,3.072156906E0
1.471178308E1,-8.693571091E-1,-1.591453552E-1,3.497274399E0
1.472186608E1,-6.504675150E-1,-6.284906864E-1,3.648774147E0
1.473185208E1,-7.230408192E-1,-9.800815582E-1,3.737449646E0
1.474171508E1,-9.490392208E-1,-1.193455935E0,3.642328262E0
1.475175208E1,-1.161171198E0,-1.319281101E0,3.223528862E0
1.476175808E1,-1.310588837E0,-1.305402517E0,2.523731232E0
1.477170708E1,-1.417121768E0,-1.212515593E0,1.806564331E0
1.478173908E1,-1.501777649E0,-1.124534130E0,1.194774628E0
1.479234308E1,-1.532960415E0,-9.541909695E-1,5.845556259E-1
1.480178908E1,-1.416650534E0,-8.938643932E-1,-3.730583191E-2
1.481260108E1,-1.169793606E0,-9.776451588E-1,-6.318931580E-1
1.482181008E1,-9.327634573E-1,-1.093139410E0,-1.022288322E0
1.483176608E1,-8.138496876E-1,-1.101399899E0,-1.191980362E0
1.484174108E1,-7.617969513E-1,-1.144089460E0,-1.143865108E0
1.485171308E1,-6.816685200E-1,-1.253765821E0,-9.211239815E-1
1.486183508E1,-6.100863218E-1,-1.398625374E0,-6.429376602E-1
1.487172608E1,-5.647760630E-1,-1.485056162E0,-4.093284607E-1
1.488171808E1,-5.708825588E-1,-1.543951273E0,-3.246297836E-1
1.489174708E1,-6.185575724E-1,-1.579715729E0,-3.068389893E-1
1.490173508E1,-6.598612070E-1,-1.576435089E0,-4.614515305E-1
1.491173408E1,-6.521025896E-1,-1.579412937E0,-7.115049362E-1
1.492229508E1,-5.326961279E-1,-1.576719284E0,-1.048397541E0
1.493173508E1,-4.126924276E-1,-1.546405315E0,-1.447793961E0
1.494174608E1,-3.241008520E-1,-1.486613035E0,-1.802325726E0
1.495180408E1,-2.862241268E-1,-1.410719395E0,-2.113758087E0
1.496187308E1,-2.635506392E-1,-1.332966328E0,-2.437358379E0
1.497173208E1,-3.245036602E-1,-1.263939857E0,-2.510009289E0
1.498176608E1,-4.248113632E-1,-1.222611666E0,-2.524803638E0
1.499180308E1,-4.389410019E-1,-1.196664333E0,-2.473482132E0
1.500173208E1,-3.585630655E-1,-1.236601114E0,-2.361085892E0
1.501171508E1,-2.697745562E-1,-1.236448050E0,-2.260340691E0
1.502172908E1,-2.034864426E-1,-1.183573723E0,-2.188817501E0
1.503170708E1,-1.499541998E-1,-1.117077589E0,-2.233955383E0
1.504513308E1,-2.015608549E-1,-9.676008224E-1,-2.429467678E0
1.506171008E1,-3.166179657E-1,-8.794105053E-1,-2.447918892E0
1.507169908E1,-3.989741802E-1,-8.058173656E-1,-2.334472179E0
1.508177008E1,-4.531224966E-1,-7.940001488E-1,-2.202449799E0
1.509172908E1,-5.165976286E-1,-7.751283646E-1,-2.059330940E0
1.510175108E1,-5.831760764E-1,-6.910271645E-1,-1.802854061E0
1.511177608E1,-6.912147403E-1,-5.744614601E-1,-1.608940125E0
1.512176408E1,-7.640827894E-1,-4.366269112E-1,-1.339985371E0
1.513174508E1,-7.500852942E-1,-2.660720348E-1,-1.002075195E0
1.514199408E1,-6.097820997E-1,-1.469457150E-1,-7.502107620E-1
1.515169808E1,-4.159740210E-1,-3.336381912E-2,-5.425834656E-1
1.516175908E1,-2.104492784E-1,2.995176315E-1,-2.352886200E-1
1.517174408E1,-2.112765908E-1,4.410357475E-1,-6.814575195E-2
1.518173908E1,-2.146015763E-1,5.402917862E-1,7.373809814E-2
1.519171208E1,-2.039448023E-1,6.039786339E-1,3.161630630E-1
1.520174508E1,-1.913603544E-1,5.959973335E-1,7.373256683E-1
1.521174108E1,-1.749117374E-1,6.069445610E-1,1.418752670E0
1.522175208E1,-1.727709770E-1,6.232705116E-1,1.992407799E0
1.523171708E1,-1.313848495E-1,5.934591293E-1,2.670656204E0
1.524175308E1,-6.966412067E-2,5.541152954E-1,3.457105637E0
1.525173508E1,-7.093012333E-2,5.537071228E-1,3.852646828E0
1.526173408E1,-1.852012873E-1,5.130448341E-1,4.068173409E0
1.527210508E1,-3.330627680E-1,5.518040657E-1,3.858350754E0
1.528192808E1,-6.439862251E-1,6.198010445E-1,3.590571404E0
1.529174308E1,-8.822091818E-1,7.311310768E-1,3.084197998E0
1.530200008E1,-9.645396471E-1,6.746678352E-1,2.456563950E0
1.531174008E1,-1.091428399E0,6.673288345E-1,1.906495094E0
1.532206708E1,-1.185299993E0,6.712956429E-1,1.530722618E0
1.533173308E1,-1.151652575E0,6.440153122E-1,1.550887108E0
1.534176308E1,-9.359754324E-1,5.651812553E-1,1.685197830E0
1.535171008E1,-5.488184690E-1,3.455061913E-1,1.955504417E0
1.536191508E1,-1.912600994E-1,1.432170868E-1,2.444581985E0
1.537173808E1,1.516261101E-1,-2.521038055E-2,2.848799706E0
1.538175708E1,3.939679861E-1,-3.328919411E-1,3.203384399E0
1.539172408E1,5.603223443E-1,-6.729528904E-1,3.184265137E0
1.540194108E1,5.802310705E-1,-9.890661240E-1,3.105365753E0
1.541172008E1,4.689071774E-1,-1.232716560E0,2.903785706E0
1.542220408E1,2.861559391E-1,-1.365152121E0,2.561724663E0
1.543176108E1,1.210600138E-1,-1.447696686E0,2.386134148E0
1.544173408E1,-4.447102547E-3,-1.519026756E0,2.113878250E0
1.545169208E1,-7.259500027E-2,-1.643382072E0,1.755432129E0
1.546169808E1,-7.093918324E-2,-1.817095757E0,1.569817543E0
1.547171008E1,-4.981350899E-2,-1.880463362E0,1.421593666E0
1.548177808E1,-3.557324409E-3,-1.909715652E0,1.133650780E0
1.549178608E1,8.187139034E-2,-1.997894049E0,7.765655518E-1
1.550170708E1,1.216716766E-1,-2.070054293E0,4.995145798E-1
1.551180508E1,1.174411774E-1,-2.064941645E0,3.310146332E-1
1.552171008E1,1.323199272E-1,-2.030802011E0,8.658123016E-2
1.553200808E1,1.922765374E-1,-2.030468941E0,-6.400680542E-2
1.554169208E1,2.756810188E-1,-2.024441242E0,-1.441373825E-1
1.555170308E1,3.356885314E-1,-1.939751148E0,-3.022537231E-1
1.556244308E1,3.116630316E-1,-1.163317204E0,-7.784452438E-1
1.557170508E1,3.527962565E-1,-8.218822479E-1,-1.084164619E0
1.558173308E1,4.021258354E-1,-5.663983822E-1,-1.357469082E0
1.559174008E1,4.596506953E-1,-4.266483784E-1,-1.541563988E0
1.560174608E1,5.630896688E-1,-3.626856804E-1,-1.570650578E0
1.561172808E1,6.688345671E-1,-3.277728558E-1,-1.547317505E0
1.562172708E1,7.626231909E-1,-3.135869503E-1,-1.563751221E0
1.563172208E1,7.919914722E-1,-3.099479675E-1,-1.569972992E0
1.564172608E1,7.257906199E-1,-2.772896290E-1,-1.573947906E0
1.565224508E1,5.874946117E-1,-2.147123814E-1,-1.665639400E0
1.566184608E1,4.737260342E-1,-1.481432915E-1,-1.784428120E0
1.567171508E1,4.387002587E-1,-1.023569107E-1,-1.812168598E0
1.568195808E1,4.921085238E-1,-4.752945900E-2,-1.841151714E0
1.569171708E1,6.163902879E-1,-4.353427887E-2,-1.900555134E0
1.570173208E1,7.081854343E-1,1.002089977E-1,-1.974061489E0
1.571183308E1,7.163702846E-1,2.228245735E-1,-1.964450359E0
1.572183908E1,7.523103356E-1,3.165681362E-1,-2.042647839E0
1.573185908E1,7.472182512E-1,3.792796135E-1,-2.099542618E0
1.574176108E1,6.726217866E-1,4.372031689E-1,-2.067409515E0
1.575172608E1,6.089615226E-1,4.886388779E-1,-1.971192837E0
1.576176608E1,5.735120773E-1,4.811830521E-1,-1.981123924E0
1.577176208E1,5.263474584E-1,5.288834572E-1,-1.911882877E0
1.578178608E1,5.003682375E-1,6.025443077E-1,-1.891153812E0
1.579170408E1,5.068852901E-1,6.702105999E-1,-1.844352245E0
1.580172608E1,5.795165896E-1,7.480618954E-1,-1.800631046E0
1.581173608E1,6.458982229E-1,7.833993435E-1,-1.760529995E0
1.582283608E1,6.787669659E-1,8.318920135E-1,-1.478090763E0
1.583172008E1,6.478788853E-1,8.910682201E-1,-1.078549385E0
1.584174908E1,6.063252091E-1,8.888840675E-1,-7.377471924E-1
1.585173008E1,6.014400125E-1,8.818225861E-1,-2.900190353E-1
1.586173108E1,5.945885777E-1,9.028637409E-1,1.494331360E-1
1.587171608E1,5.379644632E-1,9.506478310E-1,4.374685287E-1
1.588171408E1,4.394165277E-1,9.814693928E-1,5.818481445E-1
1.589186208E1,1.881313324E-2,6.554291248E-1,7.512712479E-1
1.590182008E1,-3.331906796E-1,5.525443554E-1,8.851137161E-1
1.591173508E1,-5.174868107E-1,5.824575424E-1,9.974508286E-1
1.592175408E1,-5.657492876E-1,5.963721275E-1,1.236836433E0
1.593203508E1,-5.560907125E-1,5.955352783E-1,1.398903847E0
1.594177208E1,-6.697708368E-1,6.415028572E-1,1.685805321E0
1.595175208E1,-9.634597301E-1,6.357550621E-1,1.994095802E0
1.596172208E1,-1.387895346E0,6.414442062E-1,2.210066795E0
1.597176308E1,-1.875049472E0,7.181272507E-1,2.436190605E0
1.598173508E1,-2.238057137E0,7.887964249E-1,2.467438698E0
1.599211008E1,-2.509888172E0,8.641481400E-1,2.341756821E0
1.600172408E1,-2.620310545E0,9.618458748E-1,2.206427574E0
1.601175208E1,-2.507676601E0,1.030121326E0,2.093570709E0
1.602202708E1,-2.219765186E0,1.019917011E0,1.835876465E0
1.603194808E1,-1.940436482E0,1.000403404E0,1.699849129E0
1.604175108E1,-1.727932572E0,9.389481544E-1,1.740045547E0
1.605190108E1,-1.443050385E0,7.902870178E-1,2.006244659E0
1.606173808E1,-1.015042424E0,4.714212418E-1,2.231001854E0
1.607181308E1,-5.589883924E-1,2.099862099E-1,2.453726768E0
1.608177708E1,-2.618502975E-1,-1.807737350E-2,2.532220840E0
1.609183108E1,-1.055579185E-1,-2.875018120E-1,2.451371193E0
1.610200608E1,-2.177500725E-1,-4.698815346E-1,2.261384964E0
1.611173108E1,-4.714395404E-1,-5.647313595E-1,1.947999954E0
1.612240708E1,-7.316929102E-1,-6.695344448E-1,1.218307495E0
1.613245308E1,-1.016216278E0,-6.703362465E-1,3.812408447E-1
1.614230308E1,-1.313693523E0,-5.527479649E-1,-2.843456268E-1
1.615183508E1,-1.571490765E0,-4.571862221E-1,-9.138607979E-1
1.616172708E1,-1.764832735E0,-3.699288368E-1,-1.288455963E0
1.617170808E1,-1.824995637E0,-3.150448799E-1,-1.434066772E0
1.618189308E1,-1.733700514E0,-2.891793251E-1,-1.406152248E0
1.619174008E1,-1.501591086E0,-3.798875809E-1,-1.339282990E0
1.620172208E1,-1.227104664E0,-5.476222038E-1,-1.190978527E0
1.621173908E1,-9.987022281E-1,-6.904706955E-1,-9.613499641E-1
1.622171408E1,-8.371681571E-1,-8.339157104E-1,-7.029170990E-1
1.623268408E1,-8.164083362E-1,-1.065675974E0,-3.095979691E-1
1.624172208E1,-9.100398421E-1,-1.108135223E0,-2.720613480E-1
1.625171808E1,-1.015781879E0,-1.130910158E0,-3.598623276E-1
1.626174708E1,-1.007426500E0,-1.128978491E0,-5.500860214E-1
1.627190008E1,-9.018224478E-1,-1.116095066E0,-7.636075020E-1
1.628174908E1,-7.814903259E-1,-1.084977388E0,-1.081028938E0
1.629172308E1,-5.900902152E-1,-9.952569008E-1,-1.344180107E0
1.630173608E1,-4.725587368E-1,-9.398312569E-1,-1.561966419E0
1.631185208E1,-3.350625038E-1,-9.310245514E-1,-1.812042236E0
1.632170708E1,-2.041929364E-1,-9.938342571E-1,-1.993941784E0
1.633172908E1,-1.026256084E-1,-1.047126770E0,-2.113851547E0
1.634197108E1,-5.338358879E-2,-1.083460331E0,-2.158387661E0
1.635177908E1,-5.388158560E-2,-1.091980934E0,-2.177605629E0
1.636253908E1,-1.493806243E-1,-1.089023590E0,-2.142249584E0
1.637175008E1,-2.827836871E-1,-1.008405209E0,-2.115864277E0
1.638173108E1,-3.926410675E-1,-8.941204548E-1,-2.127425194E0
1.639176708E1,-4.836524129E-1,-7.424175739E-1,-2.084475994E0
1.640173208E1,-5.228450894E-1,-5.658831596E-1,-2.107923508E0
1.641171008E1,-4.779078960E-1,-4.669532776E-1,-2.175520420E0
1.642180708E1,-5.338838696E-1,-2.966575623E-1,-2.142754555E0
1.643183708E1,-5.618595481E-1,-1.447949409E-1,-2.083144188E0
1.644175108E1,-5.760274529E-1,-5.068302155E-3,-1.949640751E0
1.645170008E1,-6.395257711E-1,1.453118324E-1,-1.787112713E0
1.646176008E1,-7.114265561E-1,2.524437904E-1,-1.508004189E0
1.647178208E1,-7.801706791E-1,4.102020264E-1,-1.292533398E0
1.648175008E1,-8.458518982E-1,5.716004372E-1,-1.145123959E0
1.649180808E1,-8.940207958E-1,7.264313698E-1,-8.667464256E-1
1.650169908E1,-9.223870635E-1,8.624382019E-1,-6.373186111E-1
1.651174008E1,-9.012497663E-1,9.617872238E-1,-5.242538452E-1
1.652172708E1,-8.230395913E-1,1.007378578E0,-4.020223618E-1
1.653170508E1,-8.144076467E-1,1.001148224E0,-1.964693069E-1
1.654174108E1,-8.588994145E-1,1.082653046E0,1.576519012E-2
1.655173108E1,-8.544827104E-1,1.068140984E0,3.440084457E-1
1.656173608E1,-8.094955683E-1,1.014269829E0,8.638677597E-1
1.657172508E1,-7.448474169E-1,9.836473465E-1,1.485765457E0
1.658172708E1,-7.383008003E-1,9.322919846E-1,2.001417160E0
1.659173908E1,-7.948055267E-1,8.744235039E-1,2.386615753E0
1.660174808E1,-8.592920303E-1,8.279032707E-1,2.640042305E0
1.661182708E1,-9.195816517E-1,8.336200714E-1,2.698591232E0
1.662176708E1,-9.661703110E-1,8.157401085E-1,2.627062798E0
1.663177508E1,-1.029220462E0,7.772054672E-1,2.498737335E0
1.664172008E1,-1.113573313E0,7.829637527E-1,2.321052551E0
1.665172908E1,-1.190173745E0,8.090629578E-1,1.997953415E0
1.666181808E1,-1.261370778E0,8.681793213E-1,1.907219887E0
1.667172708E1,-1.228302002E0,9.239416122E-1,1.575669289E0
1.668175308E1,-1.058477402E0,9.674220085E-1,1.197375298E0
1.669177208E1,-8.678728342E-1,9.573049545E-1,1.271951675E0
1.670172608E1,-4.573974609E-1,1.021170139E0,1.426291466E0
1.671174208E1,7.363092899E-2,9.674038887E-1,1.724009514E0
1.672180108E1,5.556956530E-1,5.269298553E-1,2.033782959E0
1.673177608E1,8.934193850E-1,-1.293611526E-2,2.625448227E0
1.674176908E1,1.071405172E0,-4.617352486E-1,3.186139107E0
1.675175308E1,1.179643512E0,-8.709917068E-1,3.322590828E0
1.676176608E1,1.050871134E0,-1.209980011E0,3.350090027E0
1.677172208E1,7.153491974E-1,-1.353146315E0,3.187137604E0
1.678171108E1,2.257308960E-1,-1.365347862E0,2.308558464E0
1.679176008E1,1.889955401E-1,-1.394336939E0,1.745532036E0
1.680172208E1,8.617007732E-2,-1.373761415E0,1.344031334E0
1.681174608E1,3.031182289E-2,-1.365472317E0,1.034762383E0
1.682172008E1,8.524453640E-2,-1.457023621E0,7.848987579E-1
1.683204508E1,1.810254455E-1,-1.533154726E0,7.675571442E-1
1.684186608E1,2.464384437E-1,-1.564618587E0,7.880458832E-1
1.685171008E1,3.237947226E-1,-1.608396053E0,6.992750168E-1
1.686175208E1,4.582412243E-1,-1.651421547E0,5.940637589E-1
1.687179208E1,5.923030376E-1,-1.620204926E0,3.304252625E-1
1.688172908E1,6.872397661E-1,-1.554118872E0,-5.636215210E-2
1.689171008E1,7.631890178E-1,-1.513476610E0,-4.406576157E-1
1.690204208E1,7.811802626E-1,-1.465194464E0,-8.541822433E-1
1.691233108E1,7.054945230E-1,-1.368538380E0,-1.216328621E0
1.692170808E1,6.207299829E-1,-1.276811123E0,-1.439170361E0
1.693197108E1,5.615664721E-1,-1.183813334E0,-1.623963356E0
1.694177908E1,5.582618713E-1,-1.157686472E0,-1.795619488E0
1.695173208E1,5.704947710E-1,-1.131780863E0,-1.862961292E0
1.696182608E1,6.271545291E-1,-1.100952387E0,-1.904062748E0
1.697168808E1,6.485300660E-1,-1.073824406E0,-2.025866508E0
1.698171708E1,6.259577870E-1,-1.078400373E0,-2.099792004E0
1.699177308E1,5.364975333E-1,-1.013682365E0,-2.107071400E0
1.700412308E1,4.068006873E-1,-9.331800938E-1,-2.092752934E0
1.702171008E1,2.154424191E-1,-7.929277420E-1,-1.941645622E0
1.703188708E1,1.836897135E-1,-7.130472660E-1,-1.948670387E0
1.704173708E1,1.417968273E-1,-6.295869350E-1,-1.940135002E0
1.705173708E1,9.723210335E-2,-5.198760033E-1,-1.917450905E0
1.706171608E1,2.749979496E-2,-4.099607468E-1,-1.923187256E0
1.707171008E1,-2.002072334E-2,-3.307933807E-1,-1.895078182E0
1.708180608E1,-9.034752846E-3,-2.328321934E-1,-1.847653866E0
1.709176308E1,2.878212929E-2,-1.537981033E-1,-1.794444561E0
1.710173208E1,8.180081844E-2,-7.501316071E-2,-1.735919952E0
1.711208808E1,1.275769472E-1,1.087665558E-3,-1.660220623E0
1.712185008E1,1.319423914E-1,7.107496262E-2,-1.637700081E0
1.713212908E1,1.168603897E-1,1.324911118E-1,-1.613474846E0
1.714180508E1,1.022675037E-1,2.130885124E-1,-1.584113598E0
1.715178608E1,1.159828901E-1,2.811956406E-1,-1.504397869E0
1.716175808E1,1.957489252E-1,3.576855659E-1,-1.343361855E0
1.717223708E1,2.865831256E-1,3.934903145E-1,-1.236104012E0
1.718173308E1,3.338402510E-1,4.360165596E-1,-1.098217010E0
1.719217008E1,3.140611649E-1,4.689259529E-1,-8.955931664E-1
1.720177608E1,2.279712558E-1,5.339164734E-1,-6.724929810E-1
1.721196308E1,8.233118057E-2,5.868339539E-1,-5.208492279E-1
1.722171008E1,-9.237468243E-2,6.525325775E-1,-3.438587189E-1
1.723225608E1,-2.538421154E-1,7.250108719E-1,-2.226037979E-1
1.724178508E1,-3.953562975E-1,7.930636406E-1,-1.282720566E-1
1.725179108E1,-4.694322348E-1,8.413944244E-1,8.690547943E-2
1.726168408E1,-4.725626707E-1,8.501935005E-1,3.637771606E-1
1.727181508E1,-4.817225933E-1,7.948045731E-1,6.666145325E-1
1.728211508E1,-5.175379515E-1,7.456169128E-1,1.039175987E0
1.729175508E1,-6.463801861E-1,7.826471329E-1,1.530218124E0
1.730214608E1,-1.047034502E0,9.119319916E-1,2.004798889E0
1.731188708E1,-1.059805512E0,9.177966118E-1,2.000312805E0
1.732196808E1,-1.388002992E0,1.103137493E0,2.551241875E0
1.733173908E1,-1.309311271E0,1.147032738E0,2.875277519E0
1.734175208E1,-1.110017538E0,1.115609646E0,3.056758881E0
1.735178608E1,-9.206997156E-1,9.728260040E-1,3.390048981E0
1.736184008E1,-7.199439406E-1,8.170280457E-1,3.541583061E0
1.737174808E1,-5.859496593E-1,6.154141426E-1,3.602885246E0
1.738176608E1,-4.908050299E-1,4.391951561E-1,3.561156273E0
1.739189608E1,-4.724996090E-1,2.468047142E-1,3.401349068E0
1.740175608E1,-4.782764912E-1,4.596042633E-2,3.261386871E0
1.741172808E1,-3.581565619E-1,-1.174235344E-1,3.103724480E0
1.742178408E1,-2.006974816E-1,-3.533208370E-1,2.922081947E0
1.743172208E1,-6.714707613E-2,-5.773437023E-1,2.721604347E0
1.744176808E1,-1.433522701E-1,-7.676198483E-1,2.433668137E0
1.745173308E1,-3.976093531E-1,-8.361189365E-1,2.011960030E0
1.746177708E1,-7.348235250E-1,-8.547565937E-1,1.539075851E0
1.747170008E1,-1.006740808E0,-8.509857655E-1,1.000426292E0
1.748177908E1,-1.197005510E0,-8.786547184E-1,4.908933640E-1
1.749174508E1,-1.300653696E0,-8.566963673E-1,1.922960281E-1
1.750172408E1,-1.298080444E0,-8.148326874E-1,-4.606914520E-2
1.751183908E1,-1.164114952E0,-8.062782288E-1,-1.345844269E-1
1.752192208E1,-9.552549124E-1,-8.268325329E-1,-1.406326294E-1
1.753175508E1,-7.349679470E-1,-8.474855423E-1,-2.158851624E-1
1.754172708E1,-5.294293165E-1,-8.831648827E-1,-3.077735901E-1
1.755176008E1,-3.517888784E-1,-9.401845932E-1,-3.690567017E-1
1.756178708E1,-1.973866820E-1,-9.655609131E-1,-5.167675018E-1
1.757228408E1,-8.987265825E-2,-1.003395081E0,-6.963148117E-1
1.758174608E1,-2.802294493E-2,-1.022922993E0,-8.246889114E-1
1.759173708E1,-3.531557322E-2,-1.019843578E0,-8.511786461E-1
1.760174808E1,-7.333827019E-2,-1.059516668E0,-9.963822365E-1
1.761172608E1,-1.190480888E-1,-1.134495735E0,-1.036705017E0
1.762185808E1,-1.818671823E-1,-1.143839836E0,-1.057981014E0
1.763220608E1,-2.270830572E-1,-1.155430317E0,-1.178357124E0
1.764197608E1,-2.946708500E-1,-1.202841759E0,-1.329957485E0
1.765200408E1,-3.116769195E-1,-1.260533333E0,-1.477525234E0
1.766181908E1,-3.270765245E-1,-1.310218811E0,-1.646874428E0
1.767171608E1,-3.636758029E-1,-1.307191133E0,-1.790282249E0
1.768361108E1,-3.486514986E-1,-1.263355970E0,-1.792895317E0
1.769188708E1,-3.229770064E-1,-1.257683992E0,-1.939145565E0
1.770185808E1,-3.218605518E-1,-1.173360109E0,-2.085741520E0
1.771185608E1,-3.126937151E-1,-1.141543150E0,-1.986361504E0
1.772181608E1,-3.394663334E-1,-1.101578236E0,-2.034192562E0
1.773184708E1,-4.061824679E-1,-1.020434856E0,-1.877565861E0
1.774179508E1,-4.656935036E-1,-1.031506062E0,-1.765835762E0
1.775186608E1,-5.199244022E-1,-9.979629517E-1,-1.642841339E0
1.776177008E1,-5.361744165E-1,-9.421586990E-1,-1.624825001E0
1.777177708E1,-5.799772739E-1,-9.415380955E-1,-1.669382572E0
1.778201208E1,-6.294909716E-1,-8.505358696E-1,-1.685935020E0
1.779174108E1,-6.793302298E-1,-7.755398750E-1,-1.896720409E0
1.780173708E1,-7.053283453E-1,-7.324028015E-1,-2.077794075E0
1.781247708E1,-7.057000399E-1,-6.366539001E-1,-2.115209103E0
1.782173208E1,-7.348926663E-1,-5.321340561E-1,-2.002754688E0
1.783170208E1,-7.650787830E-1,-4.257225990E-1,-1.850783825E0
1.784174908E1,-7.525076866E-1,-3.766312599E-1,-1.682217598E0
1.785172708E1,-7.211359143E-1,-3.226938248E-1,-1.503984451E0
1.786171908E1,-6.750732660E-1,-2.530813217E-2,-1.389252663E0
1.787171508E1,-5.905843973E-1,1.323947906E-1,-1.357211590E0
1.788174008E1,-5.337162018E-1,2.375645638E-1,-1.384577274E0
1.789182808E1,-4.237052500E-1,3.595004082E-1,-1.328381538E0
1.790184208E1,-3.042918742E-1,4.702033997E-1,-1.254903316E0
1.791176908E1,-1.886281371E-1,5.502395630E-1,-1.137102127E0
1.792190908E1,-8.063331246E-2,5.942411423E-1,-9.739894867E-1
1.793228608E1,-7.516863942E-2,6.576867104E-1,-9.463543892E-1
1.794175308E1,-1.691164970E-1,7.485995293E-1,-8.908143044E-1
1.795178908E1,-3.000431359E-1,8.514895439E-1,-8.585238457E-1
1.796174208E1,-4.457753897E-1,9.697308540E-1,-8.373212814E-1
1.797172508E1,-5.307886600E-1,1.079563618E0,-6.761445999E-1
1.798202908E1,-5.738064647E-1,1.151327610E0,-4.177713394E-1
1.799170608E1,-6.172481179E-1,1.242230415E0,-7.847690582E-2
1.800179608E1,-6.537404656E-1,1.288407803E0,3.866596222E-1
1.801174908E1,-6.396332383E-1,1.298607826E0,8.880023956E-1
1.802182708E1,-5.626144409E-1,1.232066154E0,1.231614113E0
1.803171608E1,-4.065496325E-1,1.071717739E0,1.523511887E0
1.804173208E1,-4.432780147E-1,1.039078236E0,1.638834000E0
1.805190608E1,-5.844680071E-1,1.008774281E0,1.876381874E0
1.806177408E1,-9.029257298E-1,9.586181641E-1,2.209684372E0
1.807177108E1,-1.251926899E0,9.222240448E-1,2.538005829E0
1.808172608E1,-1.520326376E0,8.415679932E-1,2.758589745E0
1.809176108E1,-1.572064877E0,7.464642525E-1,2.863600731E0
1.810178308E1,-1.395360231E0,6.788353920E-1,2.600141525E0
1.811174708E1,-1.090155363E0,6.341729164E-1,2.219623566E0
1.812174308E1,-8.017274141E-1,6.578302383E-1,1.481690407E0
1.813174308E1,-5.788795352E-1,7.330665588E-1,8.023967743E-1
1.814238808E1,-4.105625153E-1,8.285450935E-1,1.592178345E-1
1.815191008E1,-2.663841844E-1,9.658508301E-1,-3.211154938E-1
1.816229708E1,9.041839838E-2,8.535847664E-1,-6.178245544E-1
1.817170608E1,4.741677642E-1,7.505788803E-1,-6.566357613E-1
1.818176308E1,7.692729235E-1,5.491733551E-1,-5.592498779E-1
1.819182308E1,9.212510586E-1,1.086363792E-1,-1.496219635E-2
1.820177708E1,1.049248934E0,-4.607825279E-1,6.935424805E-1
1.821190908E1,1.212678432E0,-1.067984343E0,1.405801773E0
1.822179408E1,1.173217177E0,-1.626417875E0,2.154280663E0
1.823172808E1,8.467588425E-1,-2.060804367E0,2.634017944E0
1.824173108E1,2.470454723E-1,-2.243011951E0,2.879124641E0
1.825178008E1,-3.824337125E-1,-2.225141525E0,2.823037148E0
1.826174708E1,-7.757432461E-1,-2.213775396E0,2.302106857E0
1.827174608E1,-1.082502484E0,-2.147782326E0,1.535975456E0
1.828176308E1,-1.330891848E0,-1.955700874E0,8.503017426E-1
1.829170908E1,-1.412620783E0,-1.683969259E0,1.715154648E-1
1.830178808E1,-1.280739427E0,-1.434720993E0,-4.320063591E-1
1.831172108E1,-8.922636509E-1,-1.279327869E0,-7.586388588E-1
1.832170708E1,-3.645611405E-1,-1.142261028E0,-8.410849571E-1
1.833180208E1,1.946437657E-1,-1.046210289E0,-7.441663742E-1
1.834203208E1,6.944148540E-1,-1.045243740E0,-5.432558060E-1
1.835183308E1,1.020712137E0,-1.118611336E0,-3.336915970E-1
1.836172308E1,1.147217631E0,-1.189292431E0,-5.331611633E-2
1.837189808E1,1.115096211E0,-1.264924765E0,1.659345627E-1
1.838178008E1,9.783442020E-1,-1.408299923E0,1.883220673E-1
1.839174408E1,6.534986496E-1,-1.493426800E0,1.171960831E-1
1.840184608E1,-5.058863163E-1,-1.358687639E0,-1.298475266E-1
1.841220608E1,-8.952989578E-1,-1.292537689E0,-3.863573074E-1
1.842175308E1,-1.077624083E0,-1.266245127E0,-5.983052254E-1
1.843172508E1,-1.122968554E0,-1.195594311E0,-8.043932915E-1
1.844183708E1,-9.545906782E-1,-1.076354504E0,-9.429206848E-1
1.845172508E1,-6.603409052E-1,-9.409995079E-1,-1.131521225E0
1.846175508E1,-3.516764641E-1,-8.134555817E-1,-1.406872749E0
1.847188608E1,-1.114777923E-1,-6.498417854E-1,-1.644806385E0
1.848182508E1,4.106491804E-2,-4.625172615E-1,-1.842241764E0
1.849178508E1,1.760561466E-1,-2.874503136E-1,-1.936355591E0
1.850176908E1,2.629622221E-1,-1.440849304E-1,-1.896533489E0
1.851186408E1,2.997202873E-1,-5.789232254E-2,-1.712378979E0
1.852173708E1,2.778642774E-1,-4.143714905E-4,-1.571334362E0
1.853174408E1,2.052897811E-1,1.592350006E-2,-1.407326698E0
1.854173508E1,6.978005171E-2,6.049776077E-2,-1.229050636E0
1.855200408E1,-8.040034771E-2,1.085519791E-1,-1.083827972E0
1.856171908E1,-1.961117387E-1,1.518917084E-1,-8.814601898E-1
1.857176208E1,-2.772763371E-1,1.818237305E-1,-7.096905708E-1
1.858201008E1,-2.762091160E-1,1.815762520E-1,-5.058283806E-1
1.859175108E1,-2.885671854E-1,1.801962852E-1,-3.834571838E-1
1.860172408E1,-3.170427084E-1,2.361369133E-1,-1.580018997E-1
1.861189508E1,-3.322972059E-1,1.772007942E-1,1.880474091E-1
1.862209308E1,-2.448056936E-1,1.056180000E-1,5.337467194E-1
1.863173508E1,-1.620016098E-1,4.657030106E-2,8.424072266E-1
1.864219408E1,-9.686851501E-2,2.066898346E-2,1.000367165E0
1.865174508E1,-1.453721523E-1,1.035418510E-1,9.885520935E-1
1.866191308E1,-3.129816055E-1,2.287869453E-1,8.818330765E-1
1.867193308E1,-5.468431711E-1,4.137139320E-1,7.458534241E-1
1.868174408E1,-7.687222958E-1,6.937522888E-1,6.187191010E-1
1.869194308E1,-9.222382307E-1,8.589124680E-1,4.383230209E-1
1.870183708E1,-1.023794651E0,1.036355972E0,4.191293716E-1
1.871173508E1,-1.058547258E0,1.124650478E0,5.105285645E-1
1.872172408E1,-1.197739601E0,1.219174862E0,8.289127350E-1
1.873172908E1,-1.263476849E0,1.154752731E0,1.300429344E0
1.874175308E1,-1.347832561E0,1.013220310E0,1.883817673E0
1.875181408E1,-1.497889280E0,8.185329437E-1,2.489385605E0
1.876174508E1,-1.690508604E0,5.474920273E-1,3.071048737E0
1.877172908E1,-1.915375471E0,3.632736206E-1,3.371569633E0
1.878188808E1,-2.126466990E0,2.694311142E-1,3.351277351E0
1.879192008E1,-2.167063713E0,1.024236679E-1,3.059806824E0
1.880172508E1,-2.207238674E0,7.099103928E-2,2.600266457E0
1.881200308E1,-2.204062462E0,1.179022789E-1,2.273695946E0
1.882179208E1,-2.041818142E0,1.551618576E-1,2.243872643E0
1.883191408E1,-1.746073604E0,8.414125443E-2,2.318686485E0
1.884174808E1,-1.413843989E0,-1.325683594E-1,2.613571167E0
1.885180808E1,-1.090650082E0,-5.335631371E-1,3.140032768E0
1.886175508E1,-7.258893251E-1,-9.973282814E-1,3.568289757E0
1.887194408E1,-4.772311449E-1,-1.355430841E0,4.029232979E0
1.888173008E1,-2.939729691E-1,-1.597119093E0,4.442442894E0
1.889219408E1,-1.105612516E-1,-1.760201216E0,4.446129799E0
1.890173008E1,8.752954006E-2,-2.022434711E0,4.189470291E0
1.891203908E1,1.581918001E-1,-2.217535496E0,3.735278130E0
1.892176708E1,8.746445179E-2,-2.225178719E0,3.239274979E0
1.893173808E1,-2.462804317E-2,-2.162250996E0,2.619542122E0
1.894182008E1,-3.982232809E-1,-1.880074501E0,1.200859070E0
1.895182208E1,-5.791664124E-1,-1.798779726E0,5.947322845E-1
1.896345108E1,-7.571041584E-1,-1.725356817E0,8.091163635E-2
1.897170908E1,-9.350620508E-1,-1.643968582E0,-2.878017426E-1
1.898171908E1,-1.018742919E0,-1.615418673E0,-5.558276176E-1
1.899324108E1,-1.015171885E0,-1.632754326E0,-7.452669144E-1
1.900180908E1,-9.862872362E-1,-1.672870874E0,-8.119602203E-1
1.901175008E1,-9.166452885E-1,-1.698977470E0,-8.283510208E-1
1.902173908E1,-9.192303419E-1,-1.789059162E0,-8.089165688E-1
1.903177508E1,-9.821728468E-1,-1.797089815E0,-7.542271614E-1
1.904181708E1,-1.127184510E0,-1.759975910E0,-7.196683884E-1
1.905171208E1,-1.221010804E0,-1.700186729E0,-7.398443222E-1
1.906171908E1,-1.210348248E0,-1.708462954E0,-7.556157112E-1
1.907180508E1,-1.139297366E0,-1.705673933E0,-8.216686249E-1
1.908175108E1,-1.025861621E0,-1.711988688E0,-8.258690834E-1
1.909251108E1,-9.140995741E-1,-1.720129013E0,-8.953676224E-1
1.910192608E1,-8.279383183E-1,-1.739472866E0,-9.357385635E-1
1.911182008E1,-7.823121548E-1,-1.773939371E0,-9.203443527E-1
1.912178208E1,-7.987411022E-1,-1.794145584E0,-9.743275642E-1
1.913174208E1,-8.122849464E-1,-1.792510509E0,-9.556837082E-1
1.914176008E1,-8.216884136E-1,-1.747041702E0,-9.487247467E-1
1.915176908E1,-8.118585348E-1,-1.704295874E0,-9.907383919E-1
1.916262008E1,-7.751281261E-1,-1.648694992E0,-1.027783871E0
1.917170308E1,-6.890439987E-1,-1.586704493E0,-1.102493286E0
1.918171908E1,-6.223436594E-1,-1.468046665E0,-1.079663277E0
1.919176208E1,-5.039563179E-1,-1.385676146E0,-1.145418644E0
1.920174108E1,-3.249164820E-1,-1.358952761E0,-1.299678802E0
1.921172108E1,-1.851475239E-1,-1.284669399E0,-1.377888203E0
1.922171708E1,-7.786357403E-2,-1.191718578E0,-1.521171093E0
1.923203208E1,6.566405296E-2,-1.134526253E0,-1.710876465E0
1.924337408E1,1.272383928E-1,-1.063937187E0,-1.794931889E0
1.925191108E1,7.948005199E-2,-9.935417175E-1,-1.812362194E0
1.926171808E1,-7.186031342E-2,-9.165768623E-1,-1.774957180E0
1.927289608E1,-3.285846710E-1,-8.711466789E-1,-1.640341282E0
1.928187808E1,-6.478453875E-1,-7.962436676E-1,-1.419710159E0
1.929298108E1,-8.866515160E-1,-6.632771492E-1,-1.165904999E0
1.930173008E1,-9.899444580E-1,-5.760107040E-1,-8.739752769E-1
1.931173808E1,-9.888359308E-1,-4.844980240E-1,-6.322708130E-1
1.932216408E1,-9.506274462E-1,-3.762130737E-1,-3.665666580E-1
1.933173008E1,-9.403904676E-1,-2.738986015E-1,-1.265935898E-1
1.934177108E1,-9.397524595E-1,-1.584644318E-1,2.296543121E-1
1.935182808E1,-1.009741068E0,1.157283783E-2,5.976009369E-1
1.936186508E1,-1.065315366E0,1.758055687E-1,1.029216766E0
1.937172408E1,-1.080706120E0,2.398457527E-1,1.449335098E0
1.938174608E1,-1.090358138E0,2.178978920E-1,1.803328514E0
1.939174808E1,-1.002541304E0,2.766485214E-1,2.161054611E0
1.940175708E1,-1.041865230E0,3.428168297E-1,2.413987160E0
1.941173908E1,-1.035196781E0,4.013471603E-1,2.393800735E0
1.942172608E1,-9.591411352E-1,4.334278107E-1,2.090966225E0
1.943169408E1,-8.845852613E-1,5.610132217E-1,1.809545517E0
1.944181708E1,-8.104785681E-1,7.501530647E-1,1.590929031E0
1.945182608E1,-7.217663527E-1,8.426942825E-1,1.422640800E0
1.946177008E1,-6.745334864E-1,8.248744011E-1,1.382908821E0
1.947222608E1,-6.378334761E-1,6.662135124E-1,1.543900490E0
1.948242708E1,-5.762454271E-1,5.767045021E-1,1.461412430E0
1.949173408E1,-5.320472717E-1,5.045318604E-1,1.338230133E0
1.950173808E1,-3.468436003E-1,4.299678802E-1,1.358533859E0
1.951182008E1,-2.373526096E-1,3.669123650E-1,1.369008064E0
1.952192808E1,-1.620143652E-1,3.271470070E-1,1.370441437E0
1.953176308E1,-1.303102970E-1,2.439270020E-1,1.533427238E0
1.954189508E1,-1.087161303E-1,6.454706192E-2,1.803758621E0
1.955173308E1,-4.347491264E-2,-1.968631744E-1,2.033681870E0
1.956227808E1,7.177591324E-4,-4.677181244E-1,2.248622894E0
1.957175208E1,1.957082748E-2,-6.637310982E-1,2.368132591E0
1.958171808E1,8.938860893E-2,-8.157851696E-1,2.391938210E0
1.959175208E1,2.894379199E-1,-9.760291576E-1,2.260810852E0
1.960181208E1,4.901866913E-1,-1.127057314E0,2.132272720E0
1.961295208E1,6.641232371E-1,-1.242110014E0,1.886425972E0
1.962171408E1,7.580168247E-1,-1.293171406E0,1.730120659E0
1.963181408E1,7.123920918E-1,-1.287438631E0,1.594220161E0
1.964173908E1,6.118662357E-1,-1.269850969E0,1.260011673E0
1.965182408E1,4.924935102E-1,-1.376589537E0,9.022073746E-1
1.966192008E1,3.517875671E-1,-1.469202757E0,6.166572571E-1
1.967171508E1,2.569282055E-1,-1.527622223E0,3.500585556E-1
1.968273108E1,2.487068176E-1,-1.602563858E0,9.650135040E-2
1.969186408E1,2.774310708E-1,-1.738390684E0,-2.896308899E-2
1.970263808E1,3.024421334E-1,-1.827086926E0,-1.330385208E-1
1.971171608E1,2.387549132E-1,-1.880148411E0,-2.953634262E-1
1.972182108E1,1.025456712E-1,-1.924307823E0,-4.355173111E-1
1.973500208E1,-8.174926043E-2,-1.916303158E0,-5.655622482E-1
1.974308708E1,-2.673010528E-1,-1.897664070E0,-7.544302940E-1
1.975178008E1,-4.310151339E-1,-1.866842747E0,-9.180550575E-1
1.976292708E1,-5.452998877E-1,-1.832855940E0,-1.057296276E0
1.977175508E1,-6.209622622E-1,-1.781773329E0,-1.284492493E0
1.978176108E1,-6.877617836E-1,-1.724416494E0,-1.493773937E0
1.979171708E1,-7.232087851E-1,-1.610648870E0,-1.671902657E0
1.980182008E1,-7.133710384E-1,-1.527752638E0,-1.921941757E0
1.981185608E1,-6.586896181E-1,-1.398707867E0,-2.113662720E0
1.982183108E1,-5.619406700E-1,-1.316386223E0,-2.238855362E0
1.983174708E1,-5.079984069E-1,-1.228929520E0,-2.338839531E0
1.984170408E1,-5.743719935E-1,-1.168456554E0,-2.242508888E0
1.985174008E1,-6.976451874E-1,-1.075740099E0,-2.011015415E0
1.986172708E1,-8.192070723E-1,-9.821209908E-1,-1.747436523E0
1.987170208E1,-9.218795896E-1,-9.265127182E-1,-1.514513493E0
1.988172308E1,-1.008083820E0,-8.763689995E-1,-1.251517773E0
1.989181608E1,-1.048281908E0,-8.116471767E-1,-1.040581703E0
1.990183208E1,-9.965540767E-1,-7.239377499E-1,-8.957252502E-1
1.991296108E1,-8.119211197E-1,-6.527843475E-1,-8.265409470E-1
1.992177508E1,-5.893520117E-1,-5.630962849E-1,-8.168420792E-1
1.993208508E1,-3.135404587E-1,-4.848020077E-1,-8.519282341E-1
1.994172508E1,-2.730077505E-2,-3.950557709E-1,-7.615032196E-1
1.995175708E1,1.837912202E-1,-3.389649391E-1,-6.838283539E-1
1.996218308E1,3.097788692E-1,-2.637271881E-1,-5.649595261E-1
1.997174808E1,4.189164639E-1,-1.940231323E-1,-4.655704498E-1
1.998172808E1,4.611285925E-1,-1.298685074E-1,-3.784246445E-1
1.999173308E1,4.428659379E-1,-8.213043213E-3,-2.883996964E-1
2.000219508E1,2.774838507E-1,1.328587532E-1,-1.859846115E-1
2.001216008E1,2.060447037E-1,2.219719887E-1,-1.168308258E-1
2.002208808E1,1.020544767E-1,2.482776642E-1,-1.671657562E-1
2.003172708E1,1.435256004E-2,2.773752213E-1,-1.127319336E-1
2.004188408E1,-7.041603327E-2,3.243846893E-1,-2.173042297E-2
2.005172008E1,-1.768915653E-1,3.902635574E-1,5.595874786E-2
2.006188808E1,-2.379975319E-1,4.417595863E-1,1.779623032E-1
2.007171908E1,-1.433255076E-1,4.777512550E-1,4.824342728E-1
2.008170108E1,3.846025467E-2,4.533720016E-1,8.914899826E-1
2.009171808E1,2.701638937E-1,4.168834686E-1,1.192352295E0
2.010216108E1,4.393273294E-1,3.742790222E-1,1.382514000E0
2.011230608E1,4.823785424E-1,3.503723145E-1,1.528523445E0
2.012172708E1,3.438989520E-1,3.736820221E-1,1.608681679E0
2.013194608E1,1.121972799E-1,4.707870483E-1,1.539105415E0
2.014182308E1,-1.246075928E-1,5.144977570E-1,1.521600723E0
2.015413308E1,-3.393830657E-1,5.277819633E-1,1.525455475E0
2.017172308E1,-7.280861139E-1,5.213108063E-1,1.428254128E0
2.018178908E1,-8.915465474E-1,5.264644623E-1,1.372879028E0
2.019192508E1,-1.001828194E0,5.044155121E-1,1.306291580E0
2.020177908E1,-1.110764265E0,4.176068306E-1,1.128030777E0
2.021182808E1,-1.174017310E0,3.266534805E-1,9.154014587E-1
2.022176008E1,-1.281796098E0,2.500152588E-1,7.477474213E-1
2.023172808E1,-1.325899363E0,1.902003288E-1,7.602148056E-1
2.024171108E1,-1.278136015E0,1.190299988E-1,9.924049377E-1
2.025191808E1,-1.100308180E0,2.264308929E-2,1.244495392E0
2.026173708E1,-9.235571623E-1,-1.028499603E-1,1.607275963E0
2.027168508E1,-7.146384120E-1,-2.853522301E-1,2.141081810E0
2.028172008E1,-6.798060536E-1,-5.402283669E-1,2.529826164E0
2.029180708E1,-8.384024501E-1,-7.785563469E-1,2.811000824E0
2.030176908E1,-1.088477612E0,-9.611055851E-1,3.137844086E0
2.031174408E1,-1.367197514E0,-1.041568518E0,3.237236023E0
2.032170208E1,-1.498089910E0,-1.110025883E0,3.012027740E0
2.033189208E1,-1.470321298E0,-1.151724339E0,2.843392372E0
2.034172408E1,-1.379445672E0,-1.093568325E0,2.427951813E0
2.035273908E1,-1.315697670E0,-1.045074463E0,1.796599388E0
2.036177408E1,-1.251362801E0,-1.044291496E0,1.196593285E0
