"Time (s)","Linear Acceleration x (m/s^2)","Linear Acceleration y (m/s^2)","Linear Acceleration z (m/s^2)"
6.798501700E-2,0.000000000E0,0.000000000E0,0.000000000E0
7.308501700E-2,1.249074936E-2,-6.004810333E-3,5.855941772E-2
7.818501700E-2,-6.919384003E-3,2.120494843E-3,1.238126755E-1
8.328501700E-2,-1.123905182E-2,5.298423767E-2,1.955432892E-1
8.838501700E-2,-6.838750839E-2,1.636981964E-1,2.238674164E-1
9.348501700E-2,-9.418320656E-2,1.884531975E-1,1.804800034E-1
9.858501700E-2,-6.459283829E-2,1.100835800E-1,8.066177368E-3
1.036850170E-1,2.065634727E-2,-3.762578964E-2,-2.316904068E-1
1.087850170E-1,2.123832703E-3,-1.579251289E-1,-4.497299194E-1
1.138850170E-1,-3.281426430E-2,-1.905832291E-1,-5.589294434E-1
1.189850170E-1,4.981243610E-2,-2.460694313E-1,-9.550557137E-1
1.240850170E-1,-2.180351019E-1,3.045415878E-2,-1.506680012E0
1.291523610E-1,-4.821320772E-1,2.951297760E-1,-1.713071346E0
1.342174130E-1,-4.793680906E-1,3.921332359E-1,-1.800512791E0
1.392824650E-1,-6.485223770E-1,5.799093246E-1,-1.763647556E0
1.443475170E-1,-7.608255148E-1,6.834583282E-1,-1.496647358E0
1.494475170E-1,-8.209011555E-1,7.579002380E-1,-1.330053806E0
1.545475170E-1,-8.622376919E-1,8.902850151E-1,-8.713402748E-1
1.596475170E-1,-8.314080238E-1,9.645948410E-1,-4.226217270E-1
1.647475170E-1,-7.538132668E-1,1.147674084E0,-1.213130951E-1
1.698294440E-1,-5.786775351E-1,1.215832233E0,3.520174026E-1
1.749103820E-1,-3.446096182E-1,1.183693409E0,6.127538681E-1
1.799912670E-1,1.029002666E-1,1.040625572E0,8.046493530E-1
1.850722570E-1,5.255382061E-1,6.885075569E-1,8.214788437E-1
1.900908510E-1,8.324322701E-1,2.053980827E-1,6.804876328E-1
1.951590800E-1,1.109419823E0,-3.351883888E-1,3.910903931E-1
2.002272570E-1,1.252763629E0,-7.463986874E-1,5.539512634E-2
2.052954860E-1,1.046631098E0,-9.432988167E-1,-2.097320557E-2
2.103513190E-1,5.695327520E-1,-9.396715164E-1,1.530160904E-1
2.154170480E-1,1.197689772E-1,-7.842512131E-1,5.230360031E-1
2.204827260E-1,-3.416572809E-1,-4.919695854E-1,9.725885391E-1
2.255483510E-1,-7.458747625E-1,-9.506106377E-2,1.360901833E0
2.304574130E-1,-1.139463782E0,3.684129715E-1,1.607925415E0
2.354911630E-1,-1.426364064E0,7.432806492E-1,1.730418205E0
2.405249130E-1,-1.637277365E0,1.072361708E0,1.719110489E0
2.455587150E-1,-1.723160863E0,1.325063229E0,1.540519714E0
2.506587150E-1,-1.735306501E0,1.481628895E0,1.291760445E0
2.557587150E-1,-1.718889117E0,1.539787292E0,9.978132248E-1
2.608317880E-1,-1.608211040E0,1.474695921E0,8.084926605E-1
2.658905900E-1,-1.317627549E0,1.345989704E0,7.065687180E-1
2.709905900E-1,-9.794141054E-1,1.146753073E0,6.098060608E-1
2.760905900E-1,-6.532016993E-1,9.163269997E-1,5.081577301E-1
2.811905900E-1,-3.802114725E-1,6.744809151E-1,5.225467682E-1
2.862905900E-1,-1.025973558E-1,4.360523224E-1,6.074867249E-1
2.912339230E-1,1.332656145E-1,2.522819042E-1,7.375698090E-1
2.962977780E-1,2.962428927E-1,3.962779045E-2,9.390020370E-1
3.013615280E-1,3.063500524E-1,-1.836776733E-2,9.618597031E-1
3.064253300E-1,-2.315294743E-2,7.167172432E-2,7.911329269E-1
3.115253300E-1,-4.038621783E-1,1.947894096E-1,5.154848099E-1
3.166253300E-1,-6.331194639E-1,4.254443645E-1,3.202733994E-1
3.217253300E-1,-6.975308061E-1,7.000405788E-1,2.088241577E-1
3.268253300E-1,-8.287863731E-1,7.355587482E-1,7.168006897E-2
3.317540800E-1,-9.556620121E-1,6.247222424E-1,-4.323482513E-2
3.368188190E-1,-1.044910669E0,5.081710815E-1,-3.352546692E-2
3.418836630E-1,-9.817338586E-1,4.274089336E-1,3.780269623E-2
3.469484550E-1,-8.298566937E-1,4.138197899E-1,4.761600494E-2
3.520141840E-1,-6.989864707E-1,4.139859676E-1,4.415035248E-2
3.570791840E-1,-5.889569521E-1,4.506890774E-1,1.453924179E-1
3.621441840E-1,-3.967873454E-1,3.675475121E-1,1.331529617E-1
3.672091840E-1,-1.255533695E-1,1.613829136E-1,3.285312653E-2
3.723091840E-1,1.695134640E-1,-1.183202267E-1,-4.607009888E-2
3.774091840E-1,4.571581185E-1,-3.808171749E-1,-1.843585968E-1
3.825091840E-1,6.593096256E-1,-6.120955944E-1,-3.767538071E-1
3.876091840E-1,8.408554196E-1,-8.450835943E-1,-6.653308868E-1
3.925346010E-1,9.999473691E-1,-1.051159143E0,-8.604793549E-1
3.975996530E-1,1.249229670E0,-1.266593695E0,-8.652353287E-1
4.026647050E-1,1.467097044E0,-1.500620365E0,-7.958679199E-1
4.077297570E-1,1.759789467E0,-1.724151611E0,-6.867675781E-1
4.128297570E-1,2.056999207E0,-1.832808971E0,-4.962797165E-1
4.179297570E-1,2.388926983E0,-1.837256908E0,-2.302379608E-1
4.230297570E-1,2.605480909E0,-1.638973475E0,5.853271484E-2
4.281086110E-1,2.682456970E0,-1.264593482E0,1.626920700E-1
4.332086110E-1,2.559534550E0,-8.392927647E-1,4.317665100E-2
4.382925170E-1,2.318622112E0,-3.510361910E-1,-7.834053040E-2
4.433734550E-1,2.101761818E0,7.498002052E-2,-3.999233246E-2
4.484543920E-1,1.907588720E0,5.516573191E-1,2.658300400E-1
4.534730380E-1,1.459465742E0,9.444189072E-1,5.717554092E-1
4.585412670E-1,5.953081250E-1,1.060757756E0,5.279541016E-1
4.636094440E-1,1.519041061E-1,6.658548117E-1,1.288452148E-1
4.686776730E-1,4.568666220E-2,-5.113279819E-2,-1.015710831E-1
4.737334550E-1,2.671480179E-4,-6.813223362E-1,-1.895599365E-1
4.787991320E-1,-4.284727573E-2,-1.141633034E0,-4.404916763E-1
4.838648090E-1,-4.987931252E-2,-1.487181902E0,-5.982484818E-1
4.889304860E-1,-3.547704220E-2,-1.582659245E0,-7.930517197E-1
4.939936630E-1,-1.666774750E-1,-1.559049368E0,-1.039859772E0
4.990592360E-1,-2.786098719E-1,-1.460151196E0,-1.338974953E0
5.041247570E-1,-2.659837008E-1,-1.309903264E0,-1.500999451E0
5.091903300E-1,-1.542681456E-1,-1.089719772E0,-1.446828842E0
5.142538190E-1,1.597511768E-2,-8.429159522E-1,-1.320153236E0
5.193192880E-1,1.181148291E-1,-5.746850967E-1,-1.115768433E0
5.243847570E-1,7.917106152E-2,-3.562656641E-1,-8.473262787E-1
5.294501730E-1,-7.790994644E-2,-2.203282118E-1,-5.376911163E-1
5.345139760E-1,-1.654603481E-1,-1.940810680E-1,-9.571361542E-2
5.395793400E-1,2.202308178E-2,-3.851920366E-1,9.290637970E-1
5.446447050E-1,3.334815502E-1,-7.291078568E-1,2.276264191E0
5.497101210E-1,5.089009404E-1,-1.038216829E0,3.090064049E0
5.547741320E-1,2.537775636E-1,-1.021950245E0,2.791887283E0
5.598394440E-1,-3.567957580E-1,-7.201594114E-1,1.808466911E0
5.649047570E-1,-8.803689480E-1,-3.384995461E-1,7.190427780E-1
5.699700690E-1,-1.188777566E0,-1.473340988E-1,-2.341165543E-1
5.750342880E-1,-1.124994516E0,-2.484917641E-1,-9.198398590E-1
5.800995480E-1,-8.576157093E-1,-5.337219238E-1,-1.236708641E0
5.851648090E-1,-6.455492973E-1,-7.915930748E-1,-1.269246101E0
5.902300690E-1,-6.018582582E-1,-9.502055645E-1,-1.143959999E0
5.952945480E-1,-7.391391993E-1,-1.009930134E0,-1.133133888E0
6.003597050E-1,-9.824087620E-1,-9.424552917E-1,-1.155590057E0
6.054249130E-1,-1.198832989E0,-7.672293186E-1,-1.325354576E0
6.104901730E-1,-1.411759257E0,-5.174849033E-1,-1.485050201E0
6.155547050E-1,-1.429067254E0,-3.065876961E-1,-1.734932423E0
6.206199130E-1,-1.236068606E0,-1.564204693E-1,-2.032165051E0
6.256850690E-1,-9.607596993E-1,-8.912110329E-2,-2.281982899E0
6.307502260E-1,-6.696757674E-1,1.360654831E-3,-2.324065685E0
6.358148610E-1,-4.022749066E-1,1.204590797E-1,-2.360292912E0
6.408800170E-1,-2.389700413E-1,2.553510666E-1,-2.795099735E0
6.459451730E-1,-1.468066573E-1,2.861976624E-1,-2.738998890E0
6.510103300E-1,-1.967589855E-1,2.311534882E-1,-2.290645123E0
6.560750170E-1,-1.860312819E-1,1.913151741E-1,-2.021556377E0
6.611401730E-1,-2.595573664E-2,1.883459091E-1,-1.910463810E0
6.662052780E-1,1.261138916E-1,2.535696030E-1,-1.827099323E0
6.712704340E-1,1.188600659E-1,2.848143578E-1,-1.480693340E0
6.763351730E-1,9.093844891E-2,3.228302002E-1,-1.052859306E0
6.814002780E-1,1.566888690E-1,4.229238033E-1,-6.717052460E-1
6.864653820E-1,2.543661296E-1,4.835007191E-1,-4.738931656E-1
6.915305380E-1,2.580343187E-1,4.562144279E-1,-3.859844208E-1
6.965953820E-1,2.277901173E-1,3.455667496E-1,-3.827733994E-1
7.016604860E-1,2.553728521E-1,1.706974506E-1,-4.727849960E-1
7.067255900E-1,2.028867602E-1,-8.230113983E-2,-6.979598999E-1
7.117906940E-1,1.001625657E-1,-1.455652714E-1,-7.726507187E-1
7.168554860E-1,-4.002070427E-2,2.293419838E-2,-4.608879089E-1
7.219205900E-1,-2.998594642E-1,1.643934250E-1,-2.885856628E-1
7.269856940E-1,-4.888147712E-1,3.261795044E-1,-2.787170410E-1
7.320507460E-1,-7.083175778E-1,4.754762650E-1,-2.641086578E-1
7.371156420E-1,-8.858192563E-1,4.752397537E-1,-3.210487366E-1
7.421807460E-1,-9.246653914E-1,3.608541489E-1,-4.112577438E-1
7.472457980E-1,-8.014237285E-1,2.857635021E-1,-3.968276978E-1
7.523109030E-1,-5.844660997E-1,1.645810604E-1,-3.548326492E-1
7.573365280E-1,-3.604017496E-1,1.078531742E-1,-4.569978714E-1
7.623996010E-1,-2.946124673E-1,1.438517570E-1,-7.022714615E-1
7.674626730E-1,-2.539911270E-1,1.767246723E-1,-9.086236954E-1
7.725257980E-1,-1.791614294E-1,2.398214340E-1,-9.288129807E-1
7.775966320E-1,-1.178628206E-1,2.805960178E-1,-8.354654312E-1
7.826600690E-1,-1.227996349E-1,3.040523529E-1,-7.150344849E-1
7.877235590E-1,-1.083833575E-1,3.292610645E-1,-6.104974747E-1
7.927870480E-1,-1.133326888E-1,3.557307720E-1,-4.359703064E-1
7.976920480E-1,-1.038329005E-1,3.776876926E-1,-2.390041351E-1
8.025970480E-1,-1.702933311E-1,3.804125786E-1,4.257202148E-3
8.075020480E-1,-2.594785094E-1,3.725118637E-1,3.035001755E-1
8.124070480E-1,-2.428413033E-1,3.529639244E-1,5.256624222E-1
8.174091320E-1,-1.306484938E-1,2.968864441E-1,6.479902267E-1
8.224554860E-1,-2.279019356E-2,2.416656017E-1,7.334108353E-1
8.275017880E-1,7.654708624E-2,2.154307365E-1,7.633457184E-1
8.325480380E-1,1.626903713E-1,1.939721107E-1,7.287511826E-1
8.376480380E-1,2.117202282E-1,1.390838623E-1,6.871786118E-1
8.427480380E-1,2.619014978E-1,7.025599480E-2,4.958639145E-1
8.478480380E-1,2.658205032E-1,-2.643251419E-2,2.603454590E-1
8.529480380E-1,2.758039832E-1,-7.813096046E-2,-6.370544434E-4
8.580480380E-1,1.629050076E-1,-1.407368183E-1,-2.114648819E-1
8.631480380E-1,-4.364168644E-2,-1.652147770E-1,-3.968687057E-1
8.682480380E-1,-1.244022250E-1,-1.937296391E-1,-5.526704788E-1
8.733480380E-1,-1.568878889E-1,-1.923086643E-1,-7.079429626E-1
8.784480380E-1,-3.038802147E-1,-1.792700291E-1,-8.346099854E-1
8.835480380E-1,-4.889893830E-1,-2.205541134E-1,-9.427661896E-1
8.886480380E-1,-7.644481659E-1,-1.727066040E-1,-9.946565628E-1
8.937480380E-1,-1.016150236E0,-1.880149841E-1,-1.019495010E0
8.988480380E-1,-1.243946552E0,-2.515857220E-1,-1.027084351E0
9.039480380E-1,-1.457178950E0,-2.965104580E-1,-1.074642658E0
9.090480380E-1,-1.640477657E0,-3.371469975E-1,-1.147628307E0
9.141480380E-1,-1.735642552E0,-4.212915897E-1,-1.102967739E0
9.192480380E-1,-1.666149020E0,-4.683897495E-1,-9.933824539E-1
9.243480380E-1,-1.442656040E0,-4.077804089E-1,-8.713703156E-1
9.294480380E-1,-1.200841665E0,-3.978164196E-1,-7.272434235E-1
9.345480380E-1,-9.945628643E-1,-4.343650341E-1,-6.797647476E-1
9.395603300E-1,-8.524579406E-1,-4.469287395E-1,-5.945320129E-1
9.446153300E-1,-6.886392832E-1,-4.886047840E-1,-4.810123444E-1
9.496703300E-1,-5.834015608E-1,-4.695951939E-1,-3.579835892E-1
9.547253820E-1,-5.071209669E-1,-4.668381214E-1,-2.109832764E-1
9.598253820E-1,-4.116674662E-1,-4.331862926E-1,-1.017646790E-1
9.649253820E-1,-4.164159298E-1,-3.499972820E-1,-1.447677612E-3
9.700253820E-1,-4.454754293E-1,-2.890694141E-1,6.145858765E-2
9.751253820E-1,-5.280714035E-1,-2.214829922E-1,6.322193146E-2
9.802253820E-1,-6.733462811E-1,-1.659498215E-1,-4.835987091E-2
9.852990280E-1,-8.424906731E-1,-1.074161530E-1,-2.158250809E-1
9.903600170E-1,-1.001207590E0,-6.449270248E-2,-3.723726273E-1
9.954210070E-1,-1.091777086E0,-6.040954590E-2,-5.230340958E-1
1.000341007E0,-1.090378523E0,-3.677272797E-2,-6.683168411E-1
1.005394913E0,-1.093725204E0,2.113199234E-2,-8.323650360E-1
1.010448871E0,-1.077907562E0,7.646465302E-2,-8.585958481E-1
1.015502830E0,-1.048196077E0,1.252398491E-1,-9.053030014E-1
1.020602830E0,-1.076240897E0,1.058096886E-1,-9.582123756E-1
1.025702830E0,-1.065658212E0,3.765058517E-2,-9.553704262E-1
1.030802830E0,-1.068166137E0,-5.994653702E-2,-9.541840553E-1
1.035902830E0,-1.073600650E0,-5.857276917E-2,-8.353624344E-1
1.040861007E0,-1.005157590E0,-1.651859283E-2,-6.468210220E-1
1.045917205E0,-1.001315832E0,3.741216660E-2,-4.603433609E-1
1.050973351E0,-1.056676984E0,5.954694748E-2,-3.660488129E-1
1.056029548E0,-1.090086818E0,5.899953842E-2,-2.536125183E-1
1.061129548E0,-1.102430344E0,4.519176483E-2,-2.278461456E-1
1.066229548E0,-1.137654543E0,8.469152451E-2,-1.643810272E-1
1.071329548E0,-1.149225950E0,1.865844727E-1,-8.242702484E-2
1.076429548E0,-1.200021386E0,3.170900345E-1,-3.446292877E-2
1.081381059E0,-1.166664362E0,4.037923813E-1,1.134195328E-1
1.086439028E0,-1.111731768E0,4.950208664E-1,2.080402374E-1
1.091496944E0,-1.058882713E0,4.709434509E-1,3.023967743E-1
1.096554913E0,-9.840261936E-1,4.793105125E-1,3.776741028E-1
1.101641007E0,-8.965536356E-1,4.340522289E-1,4.912157059E-1
1.106700434E0,-7.294979095E-1,3.734617233E-1,5.618782043E-1
1.111759757E0,-5.971328020E-1,3.167808056E-1,5.946073532E-1
1.116819132E0,-4.601421654E-1,2.497818470E-1,6.467781067E-1
1.121919132E0,-3.698379695E-1,2.155587673E-1,6.515636444E-1
1.127019132E0,-3.061073720E-1,1.950044632E-1,7.092552185E-1
1.132119132E0,-2.541447878E-1,1.742379665E-1,7.050380707E-1
1.137219132E0,-2.282309234E-1,1.010768414E-1,6.009740829E-1
1.142318923E0,-3.571327329E-1,9.520030022E-2,4.212303162E-1
1.147383403E0,-4.971055090E-1,1.421306133E-1,2.614259720E-1
1.152447882E0,-6.863114834E-1,1.607708931E-1,8.326911926E-2
1.157512309E0,-9.062101841E-1,1.556982994E-1,-3.203010559E-2
1.162421840E0,-1.063368320E0,1.259584427E-1,-9.851264954E-2
1.167478559E0,-1.142838001E0,1.394741535E-1,-5.999565125E-2
1.172535278E0,-1.180061340E0,2.428770065E-1,5.901050568E-2
1.177592048E0,-1.190403700E0,3.450052738E-1,1.296434402E-1
1.182692048E0,-1.197606564E0,3.411633968E-1,1.001701355E-1
1.187792048E0,-1.144707322E0,2.935469151E-1,6.655311584E-2
1.192892048E0,-1.074091792E0,2.590122223E-1,-8.913040161E-3
1.197992048E0,-9.899924994E-1,2.325203419E-1,-3.554344177E-2
1.202941944E0,-8.831696510E-1,2.373509407E-1,-1.228189468E-1
1.208000330E0,-7.772967219E-1,2.737801075E-1,-1.897115707E-1
1.213058767E0,-7.297578454E-1,2.987811565E-1,-2.601613998E-1
1.218117101E0,-6.928783655E-1,3.221628666E-1,-3.769884109E-1
1.223201892E0,-6.574067473E-1,3.725304604E-1,-4.639024734E-1
1.228261632E0,-6.662859917E-1,3.501389027E-1,-5.544958115E-1
1.233321371E0,-6.809925437E-1,3.603498936E-1,-6.345958710E-1
1.238381059E0,-6.535512805E-1,4.031877518E-1,-6.948776245E-1
1.243481059E0,-5.979993343E-1,4.595189095E-1,-7.497558594E-1
1.248581059E0,-5.426717401E-1,4.627983570E-1,-7.565240860E-1
1.253681059E0,-5.396240354E-1,5.227291584E-1,-8.105554581E-1
1.258781059E0,-5.123594403E-1,5.533039570E-1,-8.544368744E-1
1.263722101E0,-5.043044686E-1,5.930962563E-1,-1.021394730E0
1.268782882E0,-5.248377323E-1,6.137158871E-1,-1.111044407E0
1.273843663E0,-5.313486457E-1,6.727237701E-1,-1.143230915E0
1.278904444E0,-5.957357287E-1,6.844673157E-1,-1.137540340E0
1.284004444E0,-6.132112741E-1,7.161087990E-1,-1.118171215E0
1.289104444E0,-5.840634704E-1,7.390561104E-1,-1.090007305E0
1.294204444E0,-5.274922848E-1,7.154114246E-1,-1.034121513E0
1.299304444E0,-5.191702843E-1,6.361234188E-1,-9.364748001E-1
1.304242309E0,-5.295878649E-1,5.675549507E-1,-8.540945053E-1
1.309303923E0,-5.346143842E-1,5.521996021E-1,-6.870470047E-1
1.314365590E0,-5.296022892E-1,5.656414032E-1,-5.071725845E-1
1.319427205E0,-5.431742668E-1,5.644211769E-1,-3.286237717E-1
1.324527205E0,-5.373916626E-1,5.766856670E-1,-1.939506531E-1
1.329627205E0,-5.268583298E-1,5.784816742E-1,-1.217575073E-1
1.334727205E0,-5.494125485E-1,5.647342205E-1,-8.283901215E-2
1.339827205E0,-5.286512971E-1,5.448520184E-1,-1.052989960E-1
1.344920278E0,-5.029548407E-1,5.093989372E-1,-1.553926468E-1
1.349986580E0,-5.392614007E-1,4.633178711E-1,-1.569795609E-1
1.355052882E0,-5.567178726E-1,4.973628521E-1,-1.486778259E-1
1.360119184E0,-6.036126614E-1,5.543642044E-1,-1.023502350E-1
1.365023142E0,-6.803330779E-1,5.584731102E-1,-1.372289658E-1
1.370081319E0,-7.580966949E-1,5.099103451E-1,-1.338272095E-1
1.375139548E0,-8.368884325E-1,4.714698792E-1,-1.924505234E-1
1.380197726E0,-8.737896085E-1,4.669492245E-1,-2.176551819E-1
1.385297726E0,-9.022478461E-1,4.391775131E-1,-1.765079498E-1
1.390397726E0,-9.744440913E-1,3.554987907E-1,-1.836814880E-1
1.395497726E0,-1.028077364E0,3.401582241E-1,-1.391744614E-1
1.400597726E0,-1.034343243E0,3.166909218E-1,-9.088802338E-2
1.405543298E0,-1.050164700E0,2.756547928E-1,3.934860229E-3
1.410602830E0,-9.997642040E-1,2.691900730E-1,8.799934387E-2
1.415662413E0,-9.402558804E-1,2.494485378E-1,1.519765854E-1
1.420721944E0,-8.433000445E-1,2.779405117E-1,1.676778793E-1
1.425803351E0,-6.806521416E-1,3.353955746E-1,2.446775436E-1
1.430863976E0,-5.425627232E-1,3.977088928E-1,3.493337631E-1
1.435924601E0,-4.001841545E-1,4.454603195E-1,4.768495560E-1
1.440985278E0,-3.672242165E-1,4.167869091E-1,5.986862183E-1
1.446085278E0,-3.430669904E-1,4.065530300E-1,6.677236557E-1
1.451185278E0,-3.893734813E-1,3.853971958E-1,7.132043839E-1
1.456285278E0,-4.918758869E-1,3.862271309E-1,7.354478836E-1
1.461385278E0,-5.559801459E-1,4.181437492E-1,7.678937912E-1
1.466323507E0,-6.300908327E-1,4.857780933E-1,7.486076355E-1
1.471385017E0,-6.815411448E-1,5.168838501E-1,6.782751083E-1
1.476446580E0,-6.821223497E-1,5.735979080E-1,5.857725143E-1
1.481508090E0,-6.466413140E-1,5.609087944E-1,5.471858978E-1
1.486608090E0,-5.282936692E-1,6.457686424E-1,4.480075836E-1
1.491708090E0,-4.652805328E-1,6.758074760E-1,3.218517303E-1
1.496808090E0,-3.473049998E-1,7.185325623E-1,1.925153732E-1
1.501908090E0,-2.547971010E-1,7.410569191E-1,1.121416092E-1
1.507001423E0,-1.630688906E-1,7.485275269E-1,8.504772186E-2
1.512067673E0,-8.584278822E-2,7.654280663E-1,1.559162140E-2
1.517133871E0,-1.083055139E-1,7.919116020E-1,-4.848194122E-2
1.522200069E0,-1.393194199E-1,8.186621666E-1,-1.263303757E-1
1.527104392E0,-1.403084993E-1,8.180980682E-1,-2.562170029E-1
1.532162517E0,-1.599635482E-1,8.276295662E-1,-3.519535065E-1
1.537220642E0,-1.262184381E-1,8.430562019E-1,-3.618402481E-1
1.542278715E0,-1.109477878E-1,8.170981407E-1,-3.247308731E-1
1.547378715E0,-1.003333330E-1,8.594198227E-1,-3.171043396E-1
1.552478715E0,-8.988499641E-2,9.079923630E-1,-3.151350021E-1
1.557578715E0,-1.079507470E-1,9.487223625E-1,-2.903842926E-1
1.562678715E0,-1.064721942E-1,1.010176182E0,-2.525300980E-1
1.567624496E0,-9.452009201E-2,1.068478107E0,-2.444057465E-1
1.572684028E0,-4.877382517E-2,1.109115124E0,-1.089563370E-1
1.577743507E0,3.554588556E-2,1.165885448E0,8.609008789E-2
1.582803038E0,1.440138817E-1,1.167150974E0,2.738981247E-1
1.587903038E0,2.341773808E-1,1.112975597E0,3.882713318E-1
1.593003038E0,3.822686672E-1,9.608464241E-1,4.869213104E-1
1.598103038E0,4.972689152E-1,8.116030693E-1,6.600294113E-1
1.603203038E0,5.976188779E-1,6.937026978E-1,8.119564056E-1
1.608302361E0,6.379750967E-1,5.385804176E-1,9.284267426E-1
1.613366944E0,6.576086283E-1,3.911590576E-1,1.062363625E0
1.618431528E0,6.415630579E-1,2.278938293E-1,1.270790100E0
1.623496111E0,5.800544620E-1,4.933404922E-2,1.548461914E0
1.628405278E0,5.072771907E-1,-6.401920319E-2,1.909883499E0
1.633462101E0,4.179879725E-1,-2.164497375E-1,2.282759666E0
1.638518923E0,3.659545183E-1,-3.806664944E-1,2.648778915E0
1.643575746E0,2.564389706E-1,-5.193984509E-1,2.946442604E0
1.648675746E0,2.193309814E-1,-6.340844631E-1,3.114607811E0
1.653775746E0,1.841507554E-1,-7.020223141E-1,3.254485130E0
1.658875746E0,1.659136415E-1,-7.292804718E-1,3.290321350E0
1.663975746E0,1.412173212E-1,-7.075047493E-1,3.170405388E0
1.669075746E0,1.154250205E-1,-5.708458424E-1,2.938536644E0
1.674145486E0,2.274591625E-1,-5.927174091E-1,2.767315865E0
1.679207882E0,4.323219657E-1,-5.575368404E-1,2.460614204E0
1.684270330E0,5.704134703E-1,-5.030977726E-1,2.051915169E0
1.689343142E0,6.791543961E-1,-4.053814411E-1,1.641631126E0
1.694406111E0,8.012383580E-1,-2.926270962E-1,1.215188026E0
1.699469080E0,9.126561284E-1,-2.408440113E-1,8.965625763E-1
1.704532048E0,1.022838831E0,-2.351505756E-1,5.515947342E-1
1.709603194E0,1.112881899E0,-2.705438137E-1,2.089872360E-1
1.714666580E0,1.207136154E0,-2.893435955E-1,-1.122655869E-1
1.719729913E0,1.229498506E0,-2.913124561E-1,-4.362020493E-1
1.724793298E0,1.242712975E0,-2.955291271E-1,-7.437181473E-1
1.729706163E0,1.247339368E0,-2.771742344E-1,-9.970712662E-1
1.734761996E0,1.210340261E0,-2.566719055E-1,-1.267425060E0
1.739817882E0,1.169972181E0,-2.327837944E-1,-1.574384212E0
1.744873663E0,1.159535646E0,-2.811412811E-1,-1.813167095E0
1.749966059E0,1.179001212E0,-2.959718704E-1,-1.936482906E0
1.755023715E0,1.137160063E0,-3.576717377E-1,-2.112204075E0
1.760081423E0,1.072281837E0,-4.277839661E-1,-2.230446339E0
1.765139080E0,1.041952729E0,-4.820311069E-1,-2.363182545E0
1.770239080E0,1.026966095E0,-6.112477779E-1,-2.448282719E0
1.775339080E0,1.026983261E0,-7.428543568E-1,-2.457641125E0
1.780439080E0,9.935588837E-1,-8.095781803E-1,-2.406065464E0
1.785539080E0,9.786763191E-1,-8.876311779E-1,-2.351259708E0
1.790486163E0,9.626358151E-1,-9.905774593E-1,-2.322294712E0
1.795545330E0,9.266435504E-1,-1.056733370E0,-2.223387241E0
1.800604496E0,9.229952693E-1,-1.133680820E0,-2.121748447E0
1.805663663E0,9.038213491E-1,-1.178449631E0,-2.036481380E0
1.810763663E0,9.696749449E-1,-1.229135513E0,-1.790977001E0
1.815863663E0,1.106056571E0,-1.452709198E0,-1.557638645E0
1.820963663E0,1.144998312E0,-1.600342274E0,-1.365126133E0
1.826063663E0,1.125143528E0,-1.658075809E0,-1.136832714E0
1.831006319E0,1.100040674E0,-1.655494213E0,-9.154310226E-1
1.836066632E0,1.117996454E0,-1.678544521E0,-6.961688995E-1
1.841126944E0,1.112662315E0,-1.670467854E0,-4.977846146E-1
1.846187309E0,1.074774742E0,-1.603470802E0,-2.816085815E-1
1.851287309E0,1.052250862E0,-1.592930317E0,-3.781604767E-2
1.856387309E0,1.016829729E0,-1.572759628E0,1.623716354E-1
1.861487309E0,9.875141978E-1,-1.529396057E0,3.433094025E-1
1.866587309E0,9.068261981E-1,-1.478052616E0,4.385919571E-1
1.871684184E0,8.034207821E-1,-1.395625591E0,4.774532318E-1
1.876749444E0,7.531840801E-1,-1.254317284E0,4.174051285E-1
1.881814705E0,7.075917721E-1,-1.078555584E0,3.352670670E-1
1.886879965E0,6.943857074E-1,-9.305176735E-1,2.310514450E-1
1.891787101E0,6.982014179E-1,-7.670238018E-1,2.353191376E-2
1.896844444E0,6.896523237E-1,-5.875627995E-1,-1.488227844E-1
1.901901788E0,7.022542953E-1,-4.443018436E-1,-3.531532288E-1
1.906959184E0,7.983296514E-1,-3.318579197E-1,-5.466194153E-1
1.912059184E0,8.634214401E-1,-1.541295052E-1,-7.437992096E-1
1.917159184E0,8.983461857E-1,-1.289844513E-3,-9.354515076E-1
1.922259184E0,9.659669399E-1,1.034049988E-1,-1.074074268E0
1.927359184E0,1.009715199E0,1.748628616E-1,-1.217302799E0
1.932307153E0,1.068582535E0,2.615251541E-1,-1.370169163E0
1.937366111E0,1.108681917E0,3.395185471E-1,-1.413300037E0
1.942424965E0,1.158678532E0,4.046034813E-1,-1.471404552E0
1.947483871E0,1.175154209E0,4.571056366E-1,-1.496840954E0
1.952583871E0,1.172095537E0,5.113501549E-1,-1.446711063E0
1.957683871E0,1.183181047E0,5.528969765E-1,-1.325932026E0
1.962783871E0,1.194651604E0,5.576138496E-1,-1.244375706E0
1.967883871E0,1.202412248E0,5.107822418E-1,-1.149157047E0
1.972983871E0,1.207100868E0,5.028901100E-1,-1.097423077E0
1.978049080E0,1.199777365E0,4.854912758E-1,-1.002807140E0
1.983113194E0,1.180352211E0,4.679727554E-1,-9.656295776E-1
1.988177309E0,1.158266187E0,4.550571442E-1,-9.379625320E-1
1.993245173E0,1.075609922E0,4.466896057E-1,-9.245462418E-1
1.998309444E0,9.843055606E-1,4.714970589E-1,-9.110221863E-1
2.003373715E0,9.266904593E-1,4.720325470E-1,-9.069299698E-1
2.008438038E0,8.687118292E-1,5.057182312E-1,-8.692941666E-1
2.013505278E0,7.479033470E-1,4.913244247E-1,-7.982292175E-1
2.018569705E0,6.837790012E-1,4.621090889E-1,-7.366657257E-1
2.023634132E0,6.093786359E-1,4.371671677E-1,-6.415710449E-1
2.028698559E0,6.012868881E-1,4.449992180E-1,-5.607223511E-1
2.033765382E0,5.690221786E-1,4.327440262E-1,-4.844093323E-1
2.038829965E0,5.272041559E-1,4.241318703E-1,-4.077453613E-1
2.043894496E0,5.238851905E-1,4.764189720E-1,-3.784656525E-1
2.048959028E0,5.399904251E-1,4.985070229E-1,-3.772516251E-1
2.053868298E0,4.894984961E-1,5.094966888E-1,-3.801097870E-1
2.058925121E0,5.061512589E-1,5.520877838E-1,-4.250936508E-1
2.063981892E0,5.226275325E-1,5.688567162E-1,-4.547681808E-1
2.069038663E0,5.153325796E-1,6.079249382E-1,-4.979591370E-1
2.074138663E0,5.274930596E-1,6.407999992E-1,-5.547323227E-1
2.079238663E0,5.353778005E-1,6.773605347E-1,-6.251926422E-1
2.084338663E0,5.681414008E-1,6.605744362E-1,-6.807794571E-1
2.089438663E0,6.163138151E-1,6.147003174E-1,-7.359714508E-1
2.094538663E0,5.890799165E-1,6.117496490E-1,-7.526969910E-1
2.099608455E0,5.533307195E-1,6.088342667E-1,-8.028011322E-1
2.104670851E0,5.328587294E-1,5.966401100E-1,-8.910942078E-1
2.109733246E0,4.939550757E-1,6.375560760E-1,-9.220867157E-1
2.114806111E0,5.318975449E-1,6.934065819E-1,-8.625717163E-1
2.119869028E0,5.315222144E-1,7.738409042E-1,-7.319517136E-1
2.124932048E0,5.119196773E-1,8.500251770E-1,-6.115503311E-1
2.129994965E0,5.072186589E-1,8.642692566E-1,-5.536890030E-1
2.135066163E0,5.085819960E-1,8.593201637E-1,-5.102396011E-1
2.140129496E0,5.551397204E-1,8.254113197E-1,-4.953489304E-1
2.145192882E0,5.517343879E-1,8.053083420E-1,-5.183372498E-1
2.150256215E0,5.222720504E-1,8.036146164E-1,-5.503721237E-1
2.155326319E0,4.805928171E-1,8.106303215E-1,-5.818214417E-1
2.160390017E0,4.397940636E-1,8.645806313E-1,-6.509323120E-1
2.165453715E0,4.036693275E-1,8.987474442E-1,-7.052240372E-1
2.170517413E0,3.808815181E-1,8.989953995E-1,-7.161655426E-1
2.175586423E0,3.897404075E-1,8.990745544E-1,-7.174425125E-1
2.180650434E0,4.007220268E-1,8.419194221E-1,-7.044658661E-1
2.185714340E0,4.135596752E-1,7.613844872E-1,-6.344356537E-1
2.190778351E0,4.712527692E-1,6.720490456E-1,-4.741611481E-1
2.195846528E0,5.260530710E-1,5.885376930E-1,-3.147640228E-1
2.200910694E0,5.882546306E-1,4.774522781E-1,-1.849155426E-1
2.205974861E0,6.542311907E-1,3.720493317E-1,-3.183746338E-2
2.211039080E0,6.773624420E-1,2.819571495E-1,1.205205917E-1
2.216106632E0,6.873084307E-1,2.167291641E-1,2.148437500E-1
2.221171007E0,6.511050463E-1,1.282582283E-1,3.230838776E-1
2.226235382E0,5.834281445E-1,5.490684509E-2,4.403915405E-1
2.231299705E0,5.417407751E-1,5.395793915E-2,5.094261169E-1
2.236366788E0,4.684475660E-1,9.676790237E-2,6.400747299E-1
2.241431267E0,3.396002054E-1,1.068444252E-1,7.222948074E-1
2.246495746E0,2.604753673E-1,1.412553787E-1,8.041543961E-1
2.251560226E0,1.785180569E-1,1.375946999E-1,8.666858673E-1
2.256626892E0,7.467558980E-2,1.005334854E-1,8.909397125E-1
2.261691476E0,-1.769500971E-2,1.251277924E-1,9.155254364E-1
2.266756059E0,-7.981458306E-2,1.825194359E-1,1.012130737E0
2.271820694E0,-7.842910290E-2,2.532877922E-1,1.123391151E0
2.276887048E0,-9.971690178E-2,3.611493111E-1,1.187252998E0
2.281951736E0,-9.622123837E-2,4.532837868E-1,1.232579231E0
2.287016423E0,-8.251875639E-2,5.150566101E-1,1.192709923E0
2.292081111E0,-7.270538807E-2,5.271983147E-1,1.058430672E0
2.297147153E0,-1.003087163E-1,5.569400787E-1,9.110584259E-1
2.302211892E0,-1.178610921E-1,6.188240051E-1,7.982540131E-1
2.307276684E0,-1.836276650E-1,7.086205482E-1,7.482223511E-1
2.312341423E0,-2.840457559E-1,8.794231415E-1,6.744384766E-1
2.317367934E0,-4.048540592E-1,1.021633625E0,5.719013214E-1
2.322430798E0,-5.308891535E-1,1.221284389E0,4.598455429E-1
2.327493611E0,-6.423289180E-1,1.368586540E0,3.047733307E-1
2.332556476E0,-6.955028176E-1,1.497432232E0,1.544275284E-1
2.337627986E0,-7.046630979E-1,1.613057613E0,8.502674103E-2
2.342691267E0,-6.418430209E-1,1.735260963E0,3.864288330E-2
2.347754548E0,-5.710191131E-1,1.816895485E0,1.948547363E-2
2.352817830E0,-3.986029625E-1,1.777722836E0,6.979751587E-2
2.357722830E0,-1.269185543E-1,1.651996136E0,1.506795883E-1
2.362627830E0,1.859999895E-1,1.435807705E0,2.807273865E-1
2.367532830E0,5.014201999E-1,1.077364922E0,5.550346375E-1
2.372437830E0,8.578972816E-1,6.822490692E-1,8.920364380E-1
2.377479757E0,1.136763811E0,2.272267342E-1,1.363093376E0
2.382526788E0,1.301491499E0,-1.692185402E-1,1.849291801E0
2.387573871E0,1.339971304E0,-5.561299324E-1,2.308476448E0
2.392620955E0,1.350311756E0,-8.781411648E-1,2.722900391E0
2.397720955E0,1.330155373E0,-1.136758089E0,3.088828087E0
2.402820955E0,1.196394920E0,-1.324987411E0,3.302736282E0
2.407920955E0,1.023171902E0,-1.411678791E0,3.375745773E0
2.413020955E0,8.213185072E-1,-1.413072586E0,3.299502373E0
2.418120955E0,5.960789919E-1,-1.378469467E0,3.012884140E0
2.423220955E0,3.709317148E-1,-1.284940720E0,2.478526115E0
2.428320955E0,1.632121205E-1,-1.118522167E0,1.878536224E0
2.433420955E0,1.372414827E-2,-9.941174984E-1,1.246417046E0
2.438520955E0,-1.519553661E-1,-8.580787182E-1,6.675691605E-1
2.443620955E0,-3.559104204E-1,-6.897437572E-1,5.961322784E-2
2.448720955E0,-5.347524881E-1,-4.875321388E-1,-4.400186539E-1
2.453820955E0,-7.579779625E-1,-3.218483925E-1,-9.090065956E-1
2.458920955E0,-9.695481062E-1,-2.342429161E-1,-1.372236729E0
2.464020955E0,-1.075093746E0,-1.757388115E-1,-1.677560329E0
2.469120955E0,-1.118523121E0,-1.594266891E-1,-1.883420467E0
2.474220955E0,-1.167368889E0,-1.604228020E-1,-2.004953861E0
2.479320955E0,-1.169070601E0,-1.872234344E-1,-1.966459751E0
2.484420955E0,-1.123113871E0,-2.531075478E-1,-1.821299076E0
2.489520955E0,-1.009135723E0,-3.718090057E-1,-1.598458767E0
2.494620955E0,-8.015669584E-1,-5.239009857E-1,-1.398295879E0
2.499591476E0,-5.825460553E-1,-7.474617958E-1,-1.139079571E0
2.504646788E0,-3.030734658E-1,-9.282658100E-1,-9.016795158E-1
2.509702101E0,-1.082559824E-1,-1.042529821E0,-5.614757538E-1
2.514757361E0,1.044896245E-1,-1.157639742E0,-1.708765030E-1
2.519857361E0,2.832639813E-1,-1.278697968E0,1.985445023E-1
2.524957361E0,4.239583611E-1,-1.401817799E0,5.473413467E-1
2.530057361E0,5.410945415E-1,-1.504059792E0,7.709236145E-1
2.535157361E0,6.630396843E-1,-1.590840340E0,9.749393463E-1
2.540111423E0,7.324389815E-1,-1.615684032E0,1.174422264E0
2.545168663E0,7.574410439E-1,-1.598141670E0,1.326399803E0
2.550225903E0,7.377279997E-1,-1.572790146E0,1.374126434E0
2.555283194E0,6.916723251E-1,-1.549725533E0,1.375352859E0
2.560383194E0,6.279769540E-1,-1.539002895E0,1.349466324E0
2.565483194E0,5.697370768E-1,-1.545611382E0,1.263115883E0
2.570583194E0,5.255259275E-1,-1.526629925E0,1.082953453E0
2.575683194E0,4.041533470E-1,-1.577500820E0,8.616037369E-1
2.580631476E0,2.392661870E-1,-1.606855869E0,6.419343948E-1
2.585690278E0,9.791731834E-2,-1.605086327E0,4.095621109E-1
2.590749132E0,-2.923303843E-2,-1.647998333E0,1.689395905E-1
2.595807882E0,-1.802369356E-1,-1.653674603E0,-9.454250336E-2
2.600891476E0,-3.549967408E-1,-1.626611233E0,-3.523483276E-1
2.605951528E0,-5.053935051E-1,-1.657318592E0,-5.950927734E-1
2.611011580E0,-6.311855912E-1,-1.663877487E0,-8.326420784E-1
2.616071632E0,-7.418938279E-1,-1.645692348E0,-1.051002979E0
2.621171632E0,-8.279349208E-1,-1.640873909E0,-1.278977871E0
2.626271632E0,-9.132752419E-1,-1.677457809E0,-1.464310169E0
2.631371632E0,-9.934549332E-1,-1.635807514E0,-1.611933231E0
2.636471632E0,-9.635652900E-1,-1.558758736E0,-1.726893902E0
2.641569340E0,-9.387601614E-1,-1.484527588E0,-1.766312122E0
2.646634392E0,-9.000036716E-1,-1.388996601E0,-1.783026218E0
2.651699392E0,-8.567613959E-1,-1.305883884E0,-1.867753506E0
2.656764444E0,-8.468645215E-1,-1.278394222E0,-1.919849873E0
2.661829444E0,-7.838873863E-1,-1.239829540E0,-1.896173000E0
2.666894496E0,-6.730146408E-1,-1.171176910E0,-1.839852810E0
2.671959496E0,-6.387491226E-1,-1.086798906E0,-1.750977039E0
2.677024548E0,-6.334081888E-1,-1.006254435E0,-1.677196026E0
2.682089601E0,-6.044570804E-1,-9.295208454E-1,-1.628047466E0
2.687154601E0,-5.996872783E-1,-8.520457745E-1,-1.593793392E0
2.692219653E0,-5.231636763E-1,-7.597777843E-1,-1.497763157E0
2.697284705E0,-5.135514140E-1,-6.959502697E-1,-1.411654949E0
2.702192465E0,-5.518835187E-1,-6.133358479E-1,-1.301696301E0
2.707249653E0,-5.811426640E-1,-5.258462429E-1,-1.206432819E0
2.712306788E0,-6.304411888E-1,-4.917161465E-1,-1.111084461E0
2.717364028E0,-6.714001298E-1,-4.059586525E-1,-1.020327091E0
2.722464028E0,-7.043682337E-1,-3.117961884E-1,-8.911099434E-1
2.727564028E0,-6.814149618E-1,-2.000541687E-1,-7.519865036E-1
2.732664028E0,-6.313928962E-1,-9.481573105E-2,-7.080497742E-1
2.737764028E0,-5.634784102E-1,2.310371399E-2,-6.635313034E-1
2.742864028E0,-4.863992929E-1,1.823315620E-1,-6.948280334E-1
2.747932934E0,-4.135888219E-1,2.824959755E-1,-7.492017746E-1
2.752995642E0,-3.971611857E-1,4.245009422E-1,-8.411302567E-1
2.758058351E0,-4.177610874E-1,5.703859329E-1,-8.846869469E-1
2.762973090E0,-4.178670645E-1,6.820182800E-1,-8.943514824E-1
2.768028403E0,-3.838943243E-1,8.172650337E-1,-8.800206184E-1
2.773083767E0,-3.691982031E-1,9.236230850E-1,-8.705220222E-1
2.778139080E0,-3.690825701E-1,1.025060177E0,-8.563027382E-1
2.783239080E0,-3.216283321E-1,1.102541447E0,-8.804383278E-1
2.788339080E0,-3.127636909E-1,1.141528606E0,-8.614706993E-1
2.793439080E0,-2.850155234E-1,1.132689476E0,-8.043327332E-1
2.798539080E0,-2.814109325E-1,1.167124748E0,-7.426509857E-1
2.803493090E0,-3.210428357E-1,1.220816612E0,-6.620740891E-1
2.808550330E0,-3.851662874E-1,1.289162636E0,-5.914478302E-1
2.813607621E0,-4.256829023E-1,1.324220181E0,-5.019969940E-1
2.818664913E0,-5.047231317E-1,1.335782528E0,-3.364830017E-1
2.823752986E0,-5.124337077E-1,1.342891693E0,-1.380071640E-1
2.828811840E0,-5.160209537E-1,1.340614796E0,7.910251617E-2
2.833870642E0,-5.395104885E-1,1.362239361E0,2.384281158E-1
2.838929444E0,-5.302175283E-1,1.354888439E0,3.784484863E-1
2.844029444E0,-4.599775970E-1,1.356400490E0,5.519752502E-1
2.849129444E0,-3.003053069E-1,1.367071629E0,7.635736465E-1
2.854229444E0,-1.715555191E-1,1.420550823E0,9.843654633E-1
2.859329444E0,-6.421184540E-2,1.473946571E0,1.180782318E0
2.864273090E0,1.831993461E-2,1.484473705E0,1.343271255E0
2.869333142E0,1.330557764E-1,1.495480061E0,1.629490852E0
2.874393194E0,3.379050195E-1,1.473431587E0,1.986713409E0
2.879453246E0,5.184417963E-1,1.413665771E0,2.338332176E0
2.884553246E0,6.127271652E-1,1.325713634E0,2.708312035E0
2.889653246E0,6.306009293E-1,1.286115646E0,3.024925232E0
2.894753246E0,6.294811964E-1,1.242009163E0,3.288364410E0
2.899853246E0,5.857428312E-1,1.174031258E0,3.570549965E0
2.904793194E0,5.484232903E-1,1.081793308E0,3.776097298E0
2.909854184E0,5.309690237E-1,1.013095379E0,3.909909248E0
2.914915278E0,5.291137695E-1,9.196577072E-1,4.029690742E0
2.919976319E0,5.284785628E-1,8.634057045E-1,4.039988518E0
2.925053194E0,5.243224502E-1,8.491005898E-1,3.983983994E0
2.930115017E0,5.404921174E-1,8.625068665E-1,3.904718399E0
2.935176944E0,5.771567822E-1,8.271546364E-1,3.730504036E0
2.940238767E0,7.060561776E-1,7.529344559E-1,3.518743515E0
2.945338767E0,8.930946589E-1,5.640640259E-1,3.316984177E0
2.950438767E0,1.061283231E0,3.234901428E-1,3.091444969E0
2.955538767E0,1.210355163E0,3.691911697E-2,2.899114609E0
2.960638767E0,1.344821930E0,-2.618103027E-1,2.701545715E0
2.965573351E0,1.465012789E0,-6.010134220E-1,2.589407921E0
2.970635798E0,1.494315743E0,-9.081807137E-1,2.566977501E0
2.975698298E0,1.414250135E0,-1.183049202E0,2.614843369E0
2.980760798E0,1.297095776E0,-1.416457176E0,2.766525269E0
2.985860798E0,1.057748199E0,-1.599687576E0,2.874050140E0
2.990960798E0,7.691181898E-1,-1.733959436E0,2.918927193E0
2.996060798E0,5.179326534E-1,-1.844491720E0,2.987898827E0
3.001160798E0,3.084564805E-1,-1.903785944E0,3.014526367E0
3.006093507E0,1.538713872E-1,-1.860871077E0,2.975669861E0
3.011156528E0,-4.377521574E-3,-1.787892580E0,2.890660286E0
3.016219496E0,-2.471101284E-2,-1.738378763E0,2.755170822E0
3.021282517E0,-9.070307016E-3,-1.703481436E0,2.526579857E0
3.026353559E0,8.911621571E-2,-1.664363146E0,2.243403435E0
3.031416944E0,2.302051485E-1,-1.601831913E0,1.939146042E0
3.036480382E0,4.662076235E-1,-1.491719723E0,1.642397881E0
3.041543767E0,7.726787329E-1,-1.338069439E0,1.357584000E0
3.046643767E0,1.053684115E0,-1.188066483E0,1.084412575E0
3.051743767E0,1.338826180E0,-1.035906792E0,7.746582031E-1
3.056843767E0,1.538827658E0,-8.852720261E-1,4.470529556E-1
3.061943767E0,1.698298931E0,-8.066809177E-1,1.823720932E-1
3.066873767E0,1.829111934E0,-7.502801418E-1,-7.298660278E-2
3.071937517E0,1.915947437E0,-7.213299274E-1,-2.853412628E-1
3.077001267E0,1.960549951E0,-6.988551617E-1,-4.747915268E-1
3.082065017E0,1.940193295E0,-7.393586636E-1,-6.370630264E-1
3.087133871E0,1.908106446E0,-7.941429615E-1,-7.726497650E-1
3.092197882E0,1.812591910E0,-8.051822186E-1,-8.102693558E-1
3.097261840E0,1.692258000E0,-8.106658459E-1,-7.597570419E-1
3.102325851E0,1.571350574E0,-8.296267986E-1,-6.691465378E-1
3.107425851E0,1.454550624E0,-8.334801197E-1,-5.193309784E-1
3.112525851E0,1.361031055E0,-8.992831707E-1,-3.388185501E-1
3.117625851E0,1.324429512E0,-9.655070305E-1,-1.225118637E-1
3.122725851E0,1.292137265E0,-1.051889420E0,1.155176163E-1
3.127654028E0,1.177724123E0,-1.169707298E0,2.996349335E-1
3.132718246E0,1.029169083E0,-1.280292988E0,4.489011765E-1
3.137782465E0,8.363041878E-1,-1.313725948E0,6.455373764E-1
3.142846632E0,6.223084331E-1,-1.319051266E0,7.752933502E-1
3.147946632E0,4.863492846E-1,-1.330679893E0,8.721923828E-1
3.153046632E0,4.077293277E-1,-1.359192371E0,9.080963135E-1
3.158146632E0,3.181452155E-1,-1.352926731E0,8.500738144E-1
3.163246632E0,2.936141789E-1,-1.365234852E0,7.129135132E-1
3.168332153E0,2.860755622E-1,-1.396524429E0,5.829591751E-1
3.173400486E0,3.433914781E-1,-1.394413948E0,4.746179581E-1
3.178468819E0,4.033561051E-1,-1.306396961E0,3.400402069E-1
3.183537153E0,3.854205012E-1,-1.242768288E0,6.461143494E-2
3.188442153E0,4.103829563E-1,-1.207829952E0,-2.369117737E-1
3.193494809E0,4.703575373E-1,-1.202008724E0,-5.451478958E-1
3.198554653E0,5.368801355E-1,-1.176573277E0,-8.030910492E-1
3.203614444E0,6.048979759E-1,-1.125754833E0,-1.135554790E0
3.208714444E0,5.834715962E-1,-1.058604240E0,-1.461369991E0
3.213814444E0,5.633170009E-1,-1.012455463E0,-1.823981762E0
3.218914444E0,4.444097877E-1,-9.816403389E-1,-2.132876873E0
3.224014444E0,3.705569804E-1,-9.704589844E-1,-2.498298168E0
3.228955069E0,3.411773741E-1,-9.773416519E-1,-2.787021637E0
3.234015955E0,3.089609742E-1,-9.598159790E-1,-3.041913033E0
3.239076788E0,2.728629410E-1,-9.930133820E-1,-3.297176361E0
3.244137673E0,1.989383996E-1,-1.018763542E0,-3.414543152E0
3.249237673E0,1.016144454E-1,-9.938254356E-1,-3.552129745E0
3.254337673E0,4.462502897E-3,-9.801249504E-1,-3.581001282E0
3.259437673E0,-6.847383082E-2,-9.681441784E-1,-3.539566040E0
3.264537673E0,-1.553886980E-1,-9.438450336E-1,-3.489947319E0
3.269632986E0,-2.134295404E-1,-9.361307621E-1,-3.393823624E0
3.274698663E0,-2.380748689E-1,-9.359257221E-1,-3.298833847E0
3.279764288E0,-2.390968353E-1,-8.862879276E-1,-3.195203781E0
3.284830017E0,-2.405577004E-1,-8.687665462E-1,-3.092418671E0
3.289735851E0,-2.144550681E-1,-8.502151966E-1,-2.975974083E0
3.294793507E0,-1.928000748E-1,-8.214437962E-1,-2.826537132E0
3.299851215E0,-1.857944131E-1,-8.400609493E-1,-2.715783119E0
3.304908871E0,-1.316221654E-1,-7.727043629E-1,-2.691182137E0
3.310008871E0,-6.853327155E-2,-7.392342091E-1,-2.604290962E0
3.315108871E0,-4.000434279E-2,-6.869556904E-1,-2.522188187E0
3.320208871E0,-1.741379499E-2,-6.590712070E-1,-2.440022945E0
3.325308871E0,-5.482494831E-3,-6.124632359E-1,-2.372168064E0
3.330408871E0,5.394816399E-4,-5.805914402E-1,-2.261254787E0
3.335476736E0,-3.294101357E-2,-5.490171909E-1,-2.188676357E0
3.340539861E0,-7.216566801E-2,-5.462501049E-1,-2.149673939E0
3.345602986E0,-5.020132661E-2,-5.433762074E-1,-2.024770260E0
3.350516423E0,-3.468665481E-2,-5.066270828E-1,-1.914689541E0
3.355572101E0,-3.006905317E-2,-4.551048279E-1,-1.838558674E0
3.360627778E0,-2.255910635E-2,-4.363970757E-1,-1.739117146E0
3.365683403E0,-1.213997602E-2,-4.268031120E-1,-1.616273403E0
3.370783403E0,-3.829598427E-3,-4.023766518E-1,-1.427063465E0
3.375883403E0,1.661932468E-2,-3.773488998E-1,-1.272068501E0
3.380983403E0,7.295161486E-2,-4.138727188E-1,-1.136902332E0
3.386083403E0,1.268159449E-1,-4.209203720E-1,-9.450869560E-1
3.391036423E0,1.884584427E-1,-3.556132317E-1,-7.348585129E-1
3.396093976E0,2.532206774E-1,-2.801947594E-1,-5.205869675E-1
3.401151476E0,2.551475167E-1,-2.476530075E-1,-3.402729034E-1
3.406209028E0,2.385020256E-1,-2.150855064E-1,-2.223873138E-1
3.411309028E0,2.569549680E-1,-2.065567970E-1,-1.045436859E-1
3.416409028E0,2.495767027E-1,-1.986274719E-1,-1.032447815E-2
3.421509028E0,2.595361471E-1,-1.387882233E-1,7.947635651E-2
3.426609028E0,2.628318667E-1,-9.423828125E-2,1.984214783E-1
3.431709028E0,2.251454592E-1,-2.459526062E-3,3.319091797E-1
3.436777153E0,1.599540114E-1,1.317915916E-1,4.415712357E-1
3.441840121E0,9.549060464E-2,2.410440445E-1,5.372190475E-1
3.446903142E0,8.884832263E-2,3.538684845E-1,5.615653992E-1
3.451817048E0,1.155612171E-1,4.175109863E-1,5.721426010E-1
3.456872621E0,1.519627273E-1,4.886984825E-1,5.597963333E-1
3.461928194E0,2.403710485E-1,5.148630142E-1,5.484085083E-1
3.466983715E0,3.610171974E-1,6.398253441E-1,5.282249451E-1
3.472083715E0,4.129466116E-1,7.008666992E-1,4.896726608E-1
3.477183715E0,4.198559821E-1,7.700405121E-1,3.896093369E-1
3.482283715E0,4.391708970E-1,8.235912323E-1,2.471723557E-1
3.487383715E0,4.850823283E-1,8.570137024E-1,1.292276382E-1
3.492336996E0,5.286656618E-1,9.381966591E-1,8.785057068E-2
3.497394444E0,5.602341890E-1,9.332809448E-1,7.984352112E-2
3.502451892E0,5.754048228E-1,9.819207191E-1,9.516811371E-2
3.507509340E0,5.989577174E-1,9.937901497E-1,5.702304840E-2
3.512609340E0,5.746562481E-1,9.120569229E-1,6.091690063E-2
3.517709340E0,5.418876410E-1,8.857197762E-1,5.869102478E-2
3.522809340E0,5.256989002E-1,8.095312119E-1,1.364564896E-1
3.527909340E0,5.411370993E-1,7.791299820E-1,3.085050583E-1
3.533009340E0,5.499458909E-1,7.273573875E-1,4.982757568E-1
3.538077673E0,5.570875406E-1,7.065300941E-1,6.341972351E-1
3.543140590E0,5.582266450E-1,6.586170197E-1,7.597332001E-1
3.548203559E0,5.682159662E-1,6.164631844E-1,8.609428406E-1
3.553274757E0,5.106458068E-1,6.030936241E-1,9.335641861E-1
3.558338090E0,4.570385218E-1,6.465306282E-1,9.731864929E-1
3.563401476E0,3.349438906E-1,7.701110840E-1,9.896545410E-1
3.568464809E0,1.913053691E-1,9.158239365E-1,1.026264191E0
3.573534861E0,8.737772703E-2,1.030626297E0,1.011433601E0
3.578598507E0,-4.967790842E-2,1.042473316E0,9.501466751E-1
3.583662257E0,-1.824122071E-1,1.061388493E0,8.089933395E-1
3.588725955E0,-2.114418745E-1,1.068472385E0,7.408914566E-1
3.593794913E0,-2.337047458E-1,1.063887596E0,6.642742157E-1
3.598858871E0,-3.028663993E-1,1.115073681E0,5.979270935E-1
3.603922830E0,-3.761344552E-1,1.126780987E0,4.937353134E-1
3.608986788E0,-4.484609365E-1,1.137825012E0,3.993062973E-1
3.614055017E0,-5.527459383E-1,1.187009335E0,3.574056625E-1
3.619119184E0,-6.738280058E-1,1.207916737E0,3.724899292E-1
3.624183351E0,-7.680842876E-1,1.210688591E0,4.251031876E-1
3.629247517E0,-8.352299333E-1,1.157456875E0,4.863328934E-1
3.634315069E0,-9.037243724E-1,1.091821194E0,5.176687241E-1
3.639379444E0,-9.016114473E-1,1.004649162E0,5.285072327E-1
3.644443767E0,-8.148232698E-1,8.152246475E-1,6.524515152E-1
3.649508142E0,-6.054702401E-1,6.770644188E-1,9.178161621E-1
3.654575173E0,-2.886208892E-1,5.043525696E-1,1.204645157E0
3.659639653E0,1.719594002E-3,2.208199501E-1,1.488918304E0
3.664704132E0,2.949511707E-1,-5.407238007E-2,1.789971352E0
3.669768611E0,5.587229729E-1,-3.449120522E-1,2.098692894E0
3.674835278E0,7.610576153E-1,-6.667327881E-1,2.372550964E0
3.679899861E0,8.890795708E-1,-9.009110928E-1,2.612218857E0
3.684964444E0,9.536113739E-1,-1.091794729E0,2.780205727E0
3.690029028E0,9.131935835E-1,-1.245305061E0,2.819895744E0
3.695095434E0,7.929133773E-1,-1.386697292E0,2.789586067E0
3.700160121E0,5.266071558E-1,-1.454852104E0,2.642127991E0
3.705224809E0,1.954112053E-1,-1.474658012E0,2.440279961E0
3.710289496E0,-9.637135267E-2,-1.479962349E0,2.155529976E0
3.715355486E0,-3.937705755E-1,-1.485393524E0,1.816695213E0
3.720420226E0,-6.990275383E-1,-1.442619324E0,1.466463089E0
3.725484965E0,-9.326363802E-1,-1.375042915E0,1.118761063E0
3.730549705E0,-1.187140703E0,-1.272455692E0,7.300586700E-1
3.735615538E0,-1.406111956E0,-1.182124615E0,3.573875427E-1
3.740680330E0,-1.590571642E0,-1.127299070E0,5.288410187E-2
3.745745173E0,-1.722146153E0,-1.073698282E0,-2.461967468E-1
3.750809965E0,-1.801355362E0,-1.063456297E0,-4.830217361E-1
3.755875694E0,-1.838321328E0,-1.076435804E0,-6.295614243E-1
3.760940538E0,-1.862328172E0,-1.106875181E0,-7.582492828E-1
3.766005382E0,-1.811238289E0,-1.158867121E0,-8.025364876E-1
3.771070278E0,-1.718551636E0,-1.184104204E0,-7.962527275E-1
3.776135798E0,-1.564495802E0,-1.215599298E0,-7.061767578E-1
3.781200694E0,-1.343504071E0,-1.291525364E0,-5.610494614E-1
3.786265590E0,-1.135828018E0,-1.345048904E0,-3.798398972E-1
3.791330486E0,-8.728256226E-1,-1.376367092E0,-2.149229050E-1
3.796395903E0,-6.391419768E-1,-1.462389469E0,-3.760337830E-3
3.801460851E0,-3.905881643E-1,-1.531551838E0,1.390533447E-1
3.806525746E0,-1.453406215E-1,-1.579513550E0,3.238983154E-1
3.811590642E0,8.266270161E-2,-1.606783867E0,5.079603195E-1
3.816656007E0,2.268279493E-1,-1.676084995E0,6.150283813E-1
3.821720955E0,3.637310863E-1,-1.697238922E0,7.268695831E-1
3.826785903E0,4.647012055E-1,-1.704240799E0,8.293590546E-1
3.831850851E0,5.438775420E-1,-1.659371376E0,8.892755508E-1
3.836916111E0,5.484961867E-1,-1.596417427E0,9.019937515E-1
3.841981059E0,5.359205604E-1,-1.563706875E0,8.917179108E-1
3.847046007E0,5.443014503E-1,-1.551988125E0,8.538608551E-1
3.852111007E0,5.496531725E-1,-1.571079254E0,7.407722473E-1
3.857176267E0,5.278548002E-1,-1.549352169E0,6.099872589E-1
3.862241267E0,4.355457425E-1,-1.539322853E0,4.614286423E-1
3.867306215E0,3.301991820E-1,-1.579100132E0,2.472276688E-1
3.872371215E0,1.688382328E-1,-1.606125832E0,1.034164429E-2
3.877397048E0,3.742349148E-2,-1.567755699E0,-2.253322601E-1
3.882460017E0,-9.303373098E-2,-1.554728985E0,-4.742622375E-1
3.887523038E0,-1.993135810E-1,-1.509139061E0,-6.936874390E-1
3.892586059E0,-2.912604213E-1,-1.473898411E0,-9.172234535E-1
3.897657101E0,-3.117516637E-1,-1.415111065E0,-1.130745411E0
3.902720486E0,-3.039599061E-1,-1.360753536E0,-1.339448452E0
3.907783871E0,-2.821514010E-1,-1.324706078E0,-1.510102749E0
3.912847309E0,-2.367074490E-1,-1.282795906E0,-1.647666454E0
3.917752309E0,-1.817248464E-1,-1.249122620E0,-1.790563107E0
3.922657309E0,-1.649151444E-1,-1.194901228E0,-1.919697285E0
3.927562309E0,-1.286773682E-1,-1.158364534E0,-1.949029446E0
3.932467309E0,-1.014484763E-1,-1.134606123E0,-1.945681095E0
3.937547986E0,-1.119711399E-1,-1.042320013E0,-1.976645947E0
3.942596059E0,-1.409114003E-1,-1.006258726E0,-1.993872166E0
3.947644236E0,-2.025887370E-1,-9.831998348E-1,-1.983089924E0
3.952692361E0,-2.490951419E-1,-8.585484028E-1,-1.920318127E0
3.957792361E0,-3.234019876E-1,-7.949335575E-1,-1.915656567E0
3.962892361E0,-4.304847121E-1,-7.780721188E-1,-1.868539333E0
3.967992361E0,-4.845315814E-1,-7.268931866E-1,-1.798011303E0
3.973092361E0,-4.718434215E-1,-7.228014469E-1,-1.728012562E0
3.978192361E0,-4.886558056E-1,-6.797649860E-1,-1.581996441E0
3.983292361E0,-4.300764203E-1,-6.458899975E-1,-1.484295368E0
3.988392361E0,-4.446434379E-1,-6.069169044E-1,-1.358287334E0
3.993492361E0,-3.792787194E-1,-5.393204689E-1,-1.199028492E0
3.998592361E0,-3.297548294E-1,-5.008587837E-1,-1.044643879E0
4.003692361E0,-2.624308467E-1,-4.726448059E-1,-8.758425713E-1
4.008792361E0,-2.390666604E-1,-4.456601143E-1,-7.975363731E-1
4.013892361E0,-2.064492106E-1,-4.393534660E-1,-7.233304977E-1
4.018992361E0,-1.785777211E-1,-4.013237953E-1,-6.291723251E-1
4.024092361E0,-1.170935035E-1,-3.844084740E-1,-5.628070831E-1
4.029173194E0,-5.594682693E-2,-3.074750900E-1,-5.049962997E-1
4.034273194E0,-3.382205963E-2,-2.326283455E-1,-4.653892517E-1
4.039373194E0,-7.918655872E-3,-1.548981667E-1,-4.488544464E-1
4.044473194E0,1.681101322E-2,-9.360361099E-2,-4.457035065E-1
4.049573194E0,2.561956644E-3,-1.983976364E-2,-4.942445755E-1
4.054556111E0,3.107637167E-3,5.253362656E-2,-5.850467682E-1
4.059605642E0,-2.406948805E-2,4.688835144E-2,-6.797075272E-1
4.064655121E0,-4.987981915E-2,1.262888908E-1,-7.975230217E-1
4.069704653E0,-7.880342007E-2,1.954493523E-1,-9.147820473E-1
4.074804653E0,-1.539434195E-1,2.643809319E-1,-1.026935101E0
4.079904653E0,-2.466214597E-1,3.814463615E-1,-1.129498959E0
4.085004653E0,-3.142150939E-1,4.800386429E-1,-1.203596592E0
4.090104653E0,-3.766261935E-1,5.175094604E-1,-1.206462383E0
4.095204653E0,-3.627922833E-1,5.609774590E-1,-1.157397747E0
4.100289965E0,-3.501498401E-1,5.913681984E-1,-1.090024471E0
4.105346580E0,-3.248449266E-1,6.660990715E-1,-9.852700233E-1
4.110403142E0,-2.154630125E-1,7.132554054E-1,-8.239998817E-1
4.115336267E0,-1.606496572E-1,7.279930115E-1,-6.779603958E-1
4.120386736E0,-7.449555397E-2,7.195215225E-1,-4.847564697E-1
4.125437153E0,4.352772236E-2,6.876864433E-1,-3.017053604E-1
4.130487517E0,2.125143409E-1,6.756081581E-1,-7.142448425E-2
4.135587517E0,3.988902867E-1,6.784796715E-1,1.629877090E-1
4.140687517E0,5.360561013E-1,6.485338211E-1,3.584680557E-1
4.145787517E0,6.248741150E-1,5.952782631E-1,5.199356079E-1
4.150887517E0,6.473372579E-1,5.329451561E-1,6.618976593E-1
4.155856111E0,6.716107130E-1,4.422044754E-1,8.227882385E-1
4.160909444E0,7.068957686E-1,3.758606911E-1,1.035950661E0
4.165962778E0,7.004650831E-1,3.623261452E-1,1.287101746E0
4.171016111E0,6.519126892E-1,3.009047508E-1,1.514110565E0
4.176116111E0,5.948882699E-1,2.678914070E-1,1.659772873E0
4.181216111E0,4.629681706E-1,2.483134270E-1,1.805821419E0
4.186316111E0,3.997481763E-1,2.128806114E-1,1.928653717E0
4.191416111E0,3.568578959E-1,1.895909309E-1,1.980848312E0
4.196516111E0,3.574687243E-1,2.259197235E-1,1.996133804E0
4.201593194E0,3.958866000E-1,2.643036842E-1,1.974596024E0
4.206652882E0,3.809666634E-1,3.477535248E-1,1.887605667E0
4.211712517E0,3.557680249E-1,4.473595619E-1,1.764040947E0
4.216793611E0,3.873069882E-1,5.680079460E-1,1.646943092E0
4.221854340E0,3.989237547E-1,6.814661026E-1,1.469101906E0
4.226915069E0,4.089859724E-1,7.831826210E-1,1.206562042E0
4.231975798E0,4.457290173E-1,8.833136559E-1,9.643354416E-1
4.237053611E0,5.327814817E-1,9.873199463E-1,7.181234360E-1
4.242115173E0,6.030946970E-1,1.038667679E0,5.009393692E-1
4.247176788E0,6.614165902E-1,1.119251728E0,3.411512375E-1
4.252238351E0,7.127509117E-1,1.215425968E0,2.526216507E-1
4.257313715E0,7.101567388E-1,1.294135094E0,1.776304245E-1
4.262375955E0,7.026758194E-1,1.374767303E0,1.303701401E-1
4.267438246E0,7.149538398E-1,1.390669346E0,8.192253113E-2
4.272500538E0,7.191025615E-1,1.399714947E0,2.725124359E-2
4.277416528E0,7.303553224E-1,1.412081718E0,-1.967048645E-2
4.282471476E0,7.716162801E-1,1.331949711E0,-6.177902222E-3
4.287526476E0,8.524011374E-1,1.236728668E0,-2.368736267E-2
4.292581423E0,9.768882394E-1,1.107807159E0,3.274726868E-2
4.297681423E0,1.124948025E0,8.885874748E-1,1.817283630E-1
4.302781423E0,1.319813609E0,6.035432816E-1,4.515914917E-1
4.307881423E0,1.537010789E0,2.913970947E-1,8.467893600E-1
4.312981423E0,1.704853177E0,-1.915168762E-2,1.281160355E0
4.318081423E0,1.772154212E0,-3.811492920E-1,1.640187263E0
4.323155121E0,1.727127314E0,-7.237339020E-1,1.972365379E0
4.328216059E0,1.605748653E0,-1.028958082E0,2.283183098E0
4.333276996E0,1.490948081E0,-1.326687098E0,2.530270576E0
4.338197048E0,1.317096233E0,-1.495292187E0,2.672167778E0
4.343250955E0,9.945386648E-1,-1.630232334E0,2.641847610E0
4.348304861E0,6.142404079E-1,-1.629147530E0,2.565420151E0
4.353358767E0,2.275272012E-1,-1.517820358E0,2.410403252E0
4.358458767E0,-2.451593056E-2,-1.397883892E0,2.239648819E0
4.363558767E0,-1.741898507E-1,-1.203604221E0,1.972504616E0
4.368658767E0,-1.531924903E-1,-9.974911213E-1,1.676120758E0
4.373758767E0,-1.367423534E-1,-8.225505352E-1,1.331295967E0
4.378716944E0,-1.129010767E-1,-6.643559933E-1,8.423309326E-1
4.383773090E0,-4.288052768E-2,-5.273180008E-1,3.909015656E-1
4.388829236E0,5.336135626E-3,-4.633312225E-1,1.961517334E-2
4.393885382E0,6.478118151E-2,-3.611073494E-1,-3.487787247E-1
4.398976788E0,1.118743122E-1,-3.057289124E-1,-7.387151718E-1
4.404034705E0,1.470949054E-1,-2.909154892E-1,-1.055233479E0
4.409092621E0,1.906631887E-1,-2.387738228E-1,-1.346898556E0
4.414150538E0,2.105953097E-1,-2.390413284E-1,-1.561715603E0
4.419250538E0,2.369309217E-1,-2.380204201E-1,-1.733779430E0
4.424350538E0,3.095915616E-1,-3.109941483E-1,-1.849460125E0
4.429450538E0,4.108689427E-1,-3.613781929E-1,-1.909307957E0
4.434550538E0,5.273604989E-1,-3.835296631E-1,-1.875658512E0
4.439496788E0,6.557847857E-1,-4.101109505E-1,-1.811321735E0
4.444556163E0,7.951941490E-1,-4.221830368E-1,-1.677994251E0
4.449615486E0,9.034826159E-1,-4.242343903E-1,-1.562053204E0
4.454674809E0,1.038543463E0,-4.213428497E-1,-1.434648991E0
4.459774809E0,1.181436419E0,-4.614796638E-1,-1.262247562E0
4.464874809E0,1.299129844E0,-5.020780563E-1,-1.020702839E0
4.469974809E0,1.429945588E0,-5.579519272E-1,-6.906995773E-1
4.475074809E0,1.564064980E0,-7.059211731E-1,-3.677930832E-1
4.480016892E0,1.615265250E0,-8.518269062E-1,-8.933258057E-2
4.485077361E0,1.617458463E0,-1.009550810E0,1.110239029E-1
4.490137830E0,1.580889821E0,-1.137336493E0,3.058204651E-1
4.495198351E0,1.496198535E0,-1.236145973E0,4.907884598E-1
4.500276892E0,1.368592024E0,-1.302108765E0,6.233692169E-1
4.505338246E0,1.159766197E0,-1.331563473E0,6.755104065E-1
4.510399653E0,8.981247544E-1,-1.334813118E0,6.572513580E-1
4.515461059E0,6.022961140E-1,-1.345973492E0,6.168308258E-1
4.520561059E0,3.573534489E-1,-1.322475910E0,5.019302368E-1
4.525661059E0,1.617091894E-1,-1.336544991E0,2.746133804E-1
4.530761059E0,-3.821241483E-2,-1.302294731E0,-1.704502106E-2
4.535861059E0,-2.189194858E-1,-1.258100033E0,-3.012170792E-1
4.540797048E0,-3.722229600E-1,-1.222831726E0,-6.163301468E-1
4.545859132E0,-4.776554108E-1,-1.109788895E0,-9.865651131E-1
4.550921267E0,-5.606224537E-1,-1.013919830E0,-1.278365612E0
4.555983403E0,-6.844193339E-1,-8.818976879E-1,-1.520910740E0
4.561083403E0,-8.114534020E-1,-7.368147373E-1,-1.781690121E0
4.566183403E0,-9.133355021E-1,-5.349848270E-1,-1.951054096E0
4.571283403E0,-9.712787271E-1,-4.478516579E-1,-2.120419979E0
4.576383403E0,-1.038065434E0,-3.600840569E-1,-2.242203236E0
4.581317153E0,-1.032753229E0,-2.565469742E-1,-2.312119007E0
4.586379861E0,-9.929913282E-1,-2.140235901E-1,-2.392274380E0
4.591442517E0,-9.091823101E-1,-1.411213875E-1,-2.435073853E0
4.596505278E0,-7.376547456E-1,-9.016466141E-2,-2.407236099E0
4.601577205E0,-5.306822062E-1,2.050781250E-2,-2.366395473E0
4.606640382E0,-4.022164345E-1,8.101892471E-2,-2.341333866E0
4.611703559E0,-2.506406307E-1,1.203775406E-1,-2.269949436E0
4.616766684E0,-1.135269105E-1,1.624407768E-1,-2.161794186E0
4.621866684E0,2.409447730E-2,2.261958122E-1,-2.045511723E0
4.626966684E0,1.816944182E-1,2.635979652E-1,-1.863603115E0
4.632066684E0,2.923249602E-1,2.456178665E-1,-1.644647121E0
4.637166684E0,3.847932220E-1,2.770748138E-1,-1.421918392E0
4.642097361E0,4.445558786E-1,2.800188065E-1,-1.127776623E0
4.647160903E0,4.810730815E-1,3.075575829E-1,-8.821072578E-1
4.652224444E0,5.469855070E-1,2.725787163E-1,-6.891317368E-1
4.657287986E0,5.703531504E-1,2.749252319E-1,-4.719409943E-1
4.662357413E0,6.083084345E-1,2.804651260E-1,-2.541942596E-1
4.667421267E0,6.322070956E-1,2.648162842E-1,-1.217546463E-1
4.672485069E0,6.421847343E-1,2.514543533E-1,-2.647304535E-2
4.677548923E0,6.864393353E-1,2.828402519E-1,6.067180634E-2
4.682617517E0,7.174637318E-1,2.488288879E-1,1.014776230E-1
4.687681580E0,7.016936541E-1,2.403583527E-1,1.390409470E-1
4.692745642E0,6.961941719E-1,2.383217812E-1,1.924552917E-1
4.697809705E0,6.241447926E-1,2.619886398E-1,2.090206146E-1
4.702877569E0,5.192066431E-1,2.829132080E-1,2.125654221E-1
4.707941840E0,4.485595524E-1,3.155517578E-1,1.265506744E-1
4.713006111E0,3.744558990E-1,3.552937508E-1,2.754592896E-2
4.718070382E0,3.306159079E-1,3.544945717E-1,-1.084156036E-1
4.723137673E0,2.786746919E-1,3.567118645E-1,-2.432413101E-1
4.728202101E0,1.896213740E-1,3.863496780E-1,-3.293495178E-1
4.733266476E0,1.156332940E-1,4.103569984E-1,-4.483366013E-1
4.738330903E0,8.978275955E-2,4.721164703E-1,-5.381622314E-1
4.743430903E0,9.251004457E-2,5.670418739E-1,-5.942134857E-1
4.748530903E0,1.089114696E-1,6.333436966E-1,-6.311140060E-1
4.753630903E0,1.293360442E-1,6.713066101E-1,-6.442413330E-1
4.758730903E0,2.544756532E-1,6.524701118E-1,-6.911106110E-1
4.763815746E0,3.550720215E-1,6.343984604E-1,-6.569633484E-1
4.768884236E0,4.598136544E-1,6.365170479E-1,-6.233654022E-1
4.773952778E0,5.924125910E-1,6.158976555E-1,-4.804124832E-1
4.779021267E0,7.239141464E-1,6.349358559E-1,-3.287954330E-1
4.784075903E0,8.400365114E-1,5.933341980E-1,-9.689426422E-2
4.789143663E0,8.983405828E-1,5.434703827E-1,1.484165192E-1
4.794211528E0,9.762085676E-1,4.658870697E-1,3.786354065E-1
4.799279288E0,1.017194748E0,3.795170784E-1,5.939493179E-1
4.804184288E0,1.007602692E0,2.796368599E-1,8.326406479E-1
4.809238142E0,9.960408211E-1,2.512822151E-1,1.037903786E0
4.814297569E0,9.300601482E-1,2.609024048E-1,1.214577675E0
4.819356944E0,7.763913870E-1,2.746024132E-1,1.319880486E0
4.824456944E0,6.121706367E-1,2.779002190E-1,1.306200981E0
4.829556944E0,4.370242357E-1,3.043541908E-1,1.307567596E0
4.834656944E0,3.216967583E-1,3.969187737E-1,1.285704613E0
4.839756944E0,2.167876661E-1,5.079054832E-1,1.264358521E0
4.844856476E0,1.160551906E-1,6.232633591E-1,1.262392998E0
4.849920955E0,3.273928165E-2,7.670311928E-1,1.198321342E0
4.854985486E0,-3.801536560E-2,8.678178787E-1,1.138946533E0
4.860049965E0,-1.055867076E-1,9.498872757E-1,1.108008385E0
4.864959392E0,-2.231372595E-1,1.133613110E0,1.162359238E0
4.870016163E0,-2.753619552E-1,1.299032688E0,1.244671822E0
4.875072882E0,-2.640973926E-1,1.437597275E0,1.292013168E0
4.880129653E0,-2.095887661E-1,1.535731792E0,1.413890839E0
4.885229653E0,-5.023157597E-2,1.531963825E0,1.566734314E0
4.890329653E0,2.419707179E-1,1.393638611E0,1.855261803E0
4.895429653E0,5.899469852E-1,1.116746902E0,2.207199097E0
4.900529653E0,1.080021858E0,7.257580757E-1,2.588834763E0
4.905479392E0,1.522444010E0,2.538690567E-1,2.962306023E0
4.910537830E0,1.860894203E0,-2.312555313E-1,3.356133461E0
4.915596215E0,2.131860733E0,-6.921887398E-1,3.761499405E0
4.920654653E0,2.343234301E0,-1.149042845E0,4.255717278E0
4.925739288E0,2.392850876E0,-1.497776985E0,4.643483162E0
4.930799028E0,2.245916843E0,-1.769515514E0,4.825972557E0
4.935858767E0,2.029266357E0,-1.970932961E0,4.852369308E0
4.940918507E0,1.677451372E0,-2.070838213E0,4.647609711E0
4.946018507E0,1.215033650E0,-2.094739676E0,4.270215988E0
4.951118507E0,8.076309562E-1,-2.116020441E0,3.749835968E0
4.956218507E0,5.141016245E-1,-2.115959883E0,3.225380898E0
4.961318507E0,3.068400621E-1,-2.056521654E0,2.605869293E0
4.966259392E0,-2.090501785E-2,-1.965905905E0,1.952775002E0
4.971320173E0,-4.214233160E-1,-1.767381668E0,1.323376656E0
4.976381007E0,-8.320273161E-1,-1.541172981E0,7.069435120E-1
4.981441736E0,-1.144977331E0,-1.315128803E0,1.170101166E-1
4.986541736E0,-1.352311850E0,-1.160327911E0,-3.705520630E-1
4.991641736E0,-1.551124930E0,-1.017788649E0,-7.903943062E-1
4.996741736E0,-1.708278894E0,-9.579136372E-1,-1.148200512E0
5.001841736E0,-1.842883587E0,-9.268634319E-1,-1.416004658E0
5.006937205E0,-1.902126670E0,-8.754446507E-1,-1.642460346E0
5.012002830E0,-1.889755249E0,-9.026124477E-1,-1.751770496E0
5.017068403E0,-1.771243930E0,-9.596369267E-1,-1.763494015E0
5.022134028E0,-1.583344817E0,-1.017059088E0,-1.740081310E0
5.027040069E0,-1.289591670E0,-1.102370024E0,-1.667480946E0
5.032097726E0,-1.005182385E0,-1.173084021E0,-1.550220966E0
5.037155382E0,-6.554437280E-1,-1.175956011E0,-1.393128872E0
5.042212986E0,-2.922134399E-1,-1.192121744E0,-1.134113789E0
5.047312986E0,8.457505703E-2,-1.159471273E0,-8.449692726E-1
5.052412986E0,4.659830630E-1,-1.154926062E0,-5.350103378E-1
5.057512986E0,8.428875208E-1,-1.164567232E0,-1.991491318E-1
5.062612986E0,1.153787851E0,-1.280081034E0,1.344413757E-1
5.067712986E0,1.485433102E0,-1.349164486E0,4.758739471E-1
5.072780851E0,1.752488375E0,-1.487835884E0,8.593273163E-1
5.077843923E0,1.926685810E0,-1.529768467E0,1.218423843E0
5.082907048E0,2.084959507E0,-1.562172413E0,1.477204323E0
5.087977830E0,2.141542196E0,-1.566920757E0,1.688901901E0
5.093041319E0,2.120995045E0,-1.554754257E0,1.806328773E0
5.098104809E0,2.042821407E0,-1.502790928E0,1.882686615E0
5.103168246E0,1.978940725E0,-1.454824448E0,1.899203300E0
5.108237934E0,1.890534639E0,-1.378015995E0,1.884886742E0
5.113301684E0,1.714598179E0,-1.373148441E0,1.787238121E0
5.118365538E0,1.493673682E0,-1.401937485E0,1.558505058E0
5.123429288E0,1.284421682E0,-1.373309612E0,1.256099701E0
5.128340798E0,1.062244534E0,-1.377750874E0,8.894071579E-1
5.133396996E0,8.889638186E-1,-1.352812290E0,5.253286362E-1
5.138453142E0,7.590421438E-1,-1.335819721E0,1.537723541E-1
5.143509340E0,6.907022595E-1,-1.302152634E0,-1.778192520E-1
5.148609340E0,6.455079317E-1,-1.231951714E0,-4.890041351E-1
5.153709340E0,6.043562889E-1,-1.210397720E0,-7.850704193E-1
5.158809340E0,5.770934820E-1,-1.198653698E0,-1.104546070E0
5.163909340E0,5.307562947E-1,-1.191198349E0,-1.366451740E0
5.169009340E0,5.372731090E-1,-1.197257042E0,-1.542336941E0
5.174080330E0,5.150515437E-1,-1.225767136E0,-1.661346912E0
5.179142257E0,5.070827603E-1,-1.190465927E0,-1.804947376E0
5.184204184E0,5.084435940E-1,-1.210976601E0,-1.882268429E0
5.189278403E0,5.142321587E-1,-1.220170975E0,-1.926939487E0
5.194340955E0,5.677315593E-1,-1.246946335E0,-1.986718655E0
5.199403507E0,6.164238453E-1,-1.267216206E0,-1.966019154E0
5.204466059E0,6.222039461E-1,-1.228652477E0,-1.903052807E0
5.209538455E0,6.716642976E-1,-1.231842995E0,-1.859978199E0
5.214601476E0,7.028701901E-1,-1.252848148E0,-1.831964016E0
5.219664548E0,6.444284320E-1,-1.253535271E0,-1.871503353E0
5.224727569E0,6.210287809E-1,-1.262618065E0,-1.825465679E0
5.229641319E0,5.798891783E-1,-1.256492615E0,-1.813354969E0
5.234696944E0,5.255642533E-1,-1.220756769E0,-1.835178852E0
5.239752465E0,4.722610712E-1,-1.212694407E0,-1.795331478E0
5.244808090E0,4.436494410E-1,-1.165319204E0,-1.799110889E0
5.249908090E0,3.869896233E-1,-1.126578569E0,-1.750777721E0
5.255008090E0,3.500312865E-1,-1.072539568E0,-1.664752483E0
5.260108090E0,3.279144168E-1,-1.022638083E0,-1.631793499E0
5.265208090E0,3.303944170E-1,-1.005706072E0,-1.618265629E0
5.270308090E0,3.334299922E-1,-9.502050877E-1,-1.561847210E0
5.275380330E0,3.367707431E-1,-8.852770329E-1,-1.491084576E0
5.280441840E0,3.305542171E-1,-8.304107189E-1,-1.415390491E0
5.285503246E0,3.241206408E-1,-7.666819096E-1,-1.396841526E0
5.290421840E0,2.884923220E-1,-6.992709637E-1,-1.387354374E0
5.295476111E0,2.286313176E-1,-5.898637772E-1,-1.382160664E0
5.300530434E0,1.968026459E-1,-4.768819809E-1,-1.390786648E0
5.305584757E0,1.448728144E-1,-3.316316605E-1,-1.370195866E0
5.310684757E0,1.060093939E-1,-1.922287941E-1,-1.306197643E0
5.315784757E0,1.084683836E-1,-6.331634521E-2,-1.289812565E0
5.320884757E0,1.231330335E-1,1.033220291E-1,-1.273383617E0
5.325984757E0,1.783549488E-1,2.028436661E-1,-1.209330082E0
5.330941684E0,1.928446591E-1,2.691516876E-1,-1.136148930E0
5.335998142E0,1.813739836E-1,3.458766937E-1,-1.015859127E0
5.341054601E0,1.823185980E-1,3.710680008E-1,-8.677620888E-1
5.346111059E0,1.862775385E-1,3.834619522E-1,-6.968789101E-1
5.351211059E0,1.694845855E-1,4.026694298E-1,-4.365158081E-1
5.356311059E0,1.224161983E-1,3.859663010E-1,-2.017230988E-1
5.361411059E0,1.268613636E-1,3.717417717E-1,8.404445648E-2
5.366511059E0,1.830106378E-1,3.121981621E-1,3.537845612E-1
5.371611059E0,2.477888316E-1,2.360973358E-1,6.983976364E-1
5.376681476E0,3.263523579E-1,1.908512115E-1,9.411115646E-1
5.381743611E0,4.284493923E-1,1.428618431E-1,1.273421288E0
5.386805746E0,5.448451638E-1,1.251683235E-1,1.599828720E0
5.391722205E0,6.575428843E-1,1.222600937E-1,1.849249840E0
5.396777048E0,7.903292179E-1,1.298689842E-1,2.093235016E0
5.401831892E0,8.867104650E-1,1.467871666E-1,2.332439423E0
5.406886788E0,9.472390413E-1,1.721649170E-1,2.572079659E0
5.411986788E0,9.769520760E-1,2.486152649E-1,2.764530182E0
5.417086788E0,9.714726210E-1,2.889986038E-1,2.819471359E0
5.422186788E0,8.883485198E-1,3.308582306E-1,2.852225304E0
5.427286788E0,7.373594046E-1,3.879761696E-1,2.757870674E0
5.432242153E0,6.137869358E-1,4.501385689E-1,2.603800774E0
5.437299028E0,4.358522892E-1,5.031490326E-1,2.375642776E0
5.442355955E0,2.835544348E-1,5.567159653E-1,2.216850281E0
5.447412830E0,1.459135860E-1,5.824799538E-1,1.954956055E0
5.452501996E0,4.081714153E-2,6.285963058E-1,1.704684258E0
5.457560590E0,-5.160260201E-2,7.436890602E-1,1.484719276E0
5.462619080E0,-9.352684021E-2,8.948354721E-1,1.265999794E0
5.467677621E0,-1.088694930E-1,1.015649796E0,1.043444633E0
5.472777621E0,-1.404421031E-1,1.168765545E0,9.029474258E-1
5.477877621E0,-1.925965548E-1,1.335871696E0,8.152990341E-1
5.482977621E0,-2.556425035E-1,1.460324287E0,7.417898178E-1
5.488077621E0,-3.008494973E-1,1.547426701E0,6.869392395E-1
5.493177621E0,-3.376446664E-1,1.554790020E0,6.217184067E-1
5.498243507E0,-3.177664280E-1,1.511519909E0,5.507707596E-1
5.503307309E0,-2.601207793E-1,1.432205677E0,5.409650803E-1
5.508371163E0,-1.839027703E-1,1.255373478E0,5.488348007E-1
5.513282673E0,-6.111115217E-2,1.134870052E0,5.739593506E-1
5.518338871E0,3.024190664E-2,9.419927597E-1,6.686058044E-1
5.523395069E0,1.758964956E-1,7.732958794E-1,8.274707794E-1
5.528451267E0,3.801246285E-1,6.199769974E-1,1.045286179E0
5.533551267E0,5.283384919E-1,4.683256149E-1,1.292997360E0
5.538651267E0,6.793701649E-1,2.848291397E-1,1.556347847E0
5.543751267E0,8.012234569E-1,6.950187683E-2,1.935881615E0
5.548851267E0,9.003821015E-1,-8.270168304E-2,2.283698082E0
5.553802621E0,9.500211477E-1,-2.267594337E-1,2.682400703E0
5.558860590E0,9.883518815E-1,-3.718895912E-1,3.079173088E0
5.563918559E0,9.830755591E-1,-5.108292103E-1,3.336524010E0
5.568976528E0,9.871351719E-1,-6.022980213E-1,3.493745804E0
5.574076528E0,9.959872961E-1,-6.239864826E-1,3.647332191E0
5.579176528E0,9.906855822E-1,-6.353771687E-1,3.649941444E0
5.584276528E0,1.018887758E0,-5.906298161E-1,3.545663834E0
5.589376528E0,1.027042031E0,-5.295145512E-1,3.354343414E0
5.594476528E0,1.085820556E0,-4.433915615E-1,3.052511215E0
5.599543663E0,1.155648470E0,-4.190580845E-1,2.674024582E0
5.604606996E0,1.207067966E0,-3.657720089E-1,2.142518044E0
5.609670382E0,1.262917757E0,-3.458249569E-1,1.649502754E0
5.614740434E0,1.312703252E0,-2.771894932E-1,1.132461548E0
5.619804132E0,1.417866468E0,-2.737824917E-1,5.910358429E-1
5.624867830E0,1.529594064E0,-3.059451580E-1,7.271575928E-2
5.629931476E0,1.618174314E0,-3.435394764E-1,-4.231443405E-1
5.635000486E0,1.721679688E0,-3.421287537E-1,-8.971662521E-1
5.640064444E0,1.806484103E0,-3.338603973E-1,-1.326076031E0
5.645128403E0,1.858659744E0,-3.509526253E-1,-1.691357136E0
5.650192361E0,1.902356386E0,-4.114890099E-1,-1.993559361E0
5.655103351E0,1.919016123E0,-4.699859619E-1,-2.243512630E0
5.660159653E0,1.923122764E0,-5.237364769E-1,-2.459353447E0
5.665215955E0,1.915346622E0,-6.086192131E-1,-2.637565613E0
5.670272309E0,1.953422546E0,-6.950349808E-1,-2.793027878E0
5.675372309E0,1.966089964E0,-7.678463459E-1,-2.902315140E0
5.680472309E0,1.987804532E0,-8.496515751E-1,-2.975813866E0
5.685572309E0,1.966500998E0,-9.875128269E-1,-2.999699593E0
5.690672309E0,1.965053439E0,-1.075254202E0,-2.984160423E0
5.695772309E0,1.969681144E0,-1.165158987E0,-2.900827408E0
5.700842986E0,1.985686541E0,-1.275915861E0,-2.730952263E0
5.705905017E0,1.960475206E0,-1.354758263E0,-2.513009071E0
5.710967048E0,1.956203580E0,-1.421143055E0,-2.246905804E0
5.715883871E0,1.935005665E0,-1.495067596E0,-1.970465183E0
5.720938559E0,1.939946175E0,-1.542948246E0,-1.712409496E0
5.725993403E0,1.923928857E0,-1.565857410E0,-1.472074986E0
5.731048194E0,1.930349112E0,-1.578786373E0,-1.167738438E0
5.736148194E0,1.987410188E0,-1.515636921E0,-8.467822075E-1
5.741248194E0,1.993850470E0,-1.430079460E0,-4.369115829E-1
5.746348194E0,1.996553659E0,-1.361369610E0,-6.680393219E-2
5.751448194E0,2.004834175E0,-1.310750484E0,1.590728760E-1
5.756403767E0,1.951807141E0,-1.247387886E0,3.092355728E-1
5.761460590E0,1.838512659E0,-1.184859276E0,5.077075958E-1
5.766517413E0,1.679562330E0,-1.072619438E0,6.741447449E-1
5.771574236E0,1.493883729E0,-9.451708794E-1,7.468452454E-1
5.776663663E0,1.261493325E0,-7.695467472E-1,8.121843338E-1
5.781722153E0,9.909454584E-1,-6.137478352E-1,8.418855667E-1
5.786780590E0,7.914391160E-1,-4.634816647E-1,7.881336212E-1
5.791839080E0,6.384345293E-1,-2.853927612E-1,6.605987549E-1
5.796939080E0,4.981468022E-1,-1.510610580E-1,4.544544220E-1
5.802039080E0,4.325374961E-1,-8.434629440E-2,1.936817169E-1
5.807139080E0,3.841059804E-1,6.072521210E-3,-9.314823151E-2
5.812239080E0,3.431673050E-1,1.354255676E-1,-3.394899368E-1
5.817183663E0,3.619660139E-1,2.665066719E-1,-5.794010162E-1
5.822243455E0,3.636101782E-1,4.047656059E-1,-8.084249496E-1
5.827303246E0,4.008761644E-1,5.177021027E-1,-1.041384220E0
5.832363038E0,4.742718339E-1,6.970291138E-1,-1.206910610E0
5.837463038E0,5.599342585E-1,8.140215874E-1,-1.367485523E0
5.842563038E0,6.919088364E-1,8.597688675E-1,-1.480338573E0
5.847663038E0,8.083452582E-1,8.683681488E-1,-1.531433582E0
5.852763038E0,9.475858212E-1,9.261898994E-1,-1.497053623E0
5.857861423E0,1.018851519E0,9.710993767E-1,-1.473001957E0
5.862926267E0,1.099308848E0,1.036520481E0,-1.397056103E0
5.867991059E0,1.089185476E0,1.088809490E0,-1.350508213E0
5.873055851E0,1.056306720E0,1.084607601E0,-1.204031467E0
5.878121528E0,1.096773863E0,1.095339775E0,-1.062777996E0
5.883186371E0,1.100716591E0,1.072688103E0,-9.504275322E-1
5.888251215E0,1.111482859E0,1.021339417E0,-8.238363266E-1
5.893316059E0,1.181837201E0,9.794516563E-1,-7.355680466E-1
5.898224444E0,1.206826329E0,9.659047127E-1,-6.567630768E-1
5.903281476E0,1.229408741E0,9.421463013E-1,-6.733694077E-1
5.908338507E0,1.240068197E0,9.227256775E-1,-6.371059418E-1
5.913395538E0,1.248505592E0,8.979873657E-1,-6.436414719E-1
5.918495538E0,1.221339226E0,8.534650803E-1,-6.211194992E-1
5.923595538E0,1.206300020E0,8.181214333E-1,-6.318616867E-1
5.928695538E0,1.107605815E0,7.537941933E-1,-5.802240372E-1
5.933795538E0,1.006807446E0,7.177786827E-1,-5.857677460E-1
5.938744392E0,8.985704184E-1,6.766843796E-1,-5.719537735E-1
5.943803038E0,7.596968412E-1,6.587305069E-1,-5.481090546E-1
5.948861684E0,6.326211691E-1,6.352128983E-1,-5.190248489E-1
5.953920278E0,5.218259096E-1,6.396713257E-1,-4.847221375E-1
5.959020278E0,3.936156034E-1,6.001615524E-1,-3.972806931E-1
5.964120278E0,2.713443041E-1,6.173419952E-1,-3.764095306E-1
5.969220278E0,1.741082221E-1,6.288738251E-1,-4.171810150E-1
5.974320278E0,6.356526911E-2,6.490135193E-1,-4.333724976E-1
5.979264444E0,-6.646233797E-2,6.783804893E-1,-4.158029556E-1
5.984324392E0,-1.149678826E-1,6.778950691E-1,-3.258180618E-1
5.989384288E0,-1.363104582E-1,7.387909889E-1,-2.498197556E-1
5.994444184E0,-1.313296258E-1,8.372015953E-1,-2.213706970E-1
5.999524444E0,-1.287597716E-1,8.870124817E-1,-1.782646179E-1
6.004585382E0,-1.381640732E-1,9.695143700E-1,-7.745265961E-2
6.009646319E0,-1.116665304E-1,1.012955189E0,5.227565765E-2
6.014707257E0,-7.823234797E-2,1.050768852E0,1.487436295E-1
6.019807257E0,-2.339649200E-2,1.111611366E0,2.981004715E-1
6.024907257E0,9.553849697E-3,1.099993229E0,5.097284317E-1
6.030007257E0,1.022925079E-1,1.097219944E0,6.736173630E-1
6.035107257E0,2.360006422E-1,1.098592281E0,9.045734406E-1
6.040044548E0,3.966427743E-1,1.037905693E0,1.178207397E0
6.045106267E0,5.417647958E-1,9.615650177E-1,1.428371429E0
6.050168038E0,6.433430910E-1,8.939418793E-1,1.654896736E0
6.055229809E0,7.164496183E-1,8.153820038E-1,1.829452515E0
6.060329809E0,7.574766874E-1,7.252821922E-1,1.942965508E0
6.065429809E0,8.102372885E-1,6.716365814E-1,2.076792717E0
6.070529809E0,8.173178434E-1,6.208868027E-1,2.159222603E0
6.075629809E0,7.930171490E-1,5.683050156E-1,2.219008446E0
6.080564653E0,7.271524668E-1,5.437645912E-1,2.212447166E0
6.085627048E0,6.726756692E-1,5.069675446E-1,2.150406837E0
6.090689444E0,6.099609733E-1,4.972910881E-1,2.056236267E0
6.095751840E0,5.101671219E-1,5.148029327E-1,1.977768898E0
6.100824705E0,3.874721825E-1,5.164422989E-1,1.876738548E0
6.105887621E0,2.989932299E-1,5.262641907E-1,1.757899284E0
6.110950538E0,2.353218496E-1,5.588116646E-1,1.597283363E0
6.116013507E0,1.727071702E-1,6.189894676E-1,1.399677277E0
6.121113507E0,9.694772959E-2,7.927417755E-1,1.193936348E0
6.126213507E0,-2.997344732E-2,9.945530891E-1,9.940176010E-1
6.131313507E0,-2.029052973E-1,1.210460663E0,7.183933258E-1
6.136413507E0,-3.211023808E-1,1.426381588E0,4.052743912E-1
6.141502621E0,-4.470384717E-1,1.628482342E0,1.452283859E-1
6.146569913E0,-5.964707732E-1,1.822148800E0,-1.197195053E-1
6.151637257E0,-7.180503011E-1,1.984190464E0,-3.471550941E-1
6.156704601E0,-7.085944414E-1,2.038960934E0,-5.762143135E-1
6.161762778E0,-6.090006232E-1,2.068850517E0,-6.453013420E-1
6.166829601E0,-4.559217691E-1,1.993634224E0,-6.036133766E-1
6.171896476E0,-1.315942407E-1,1.795668125E0,-4.095110893E-1
6.176963351E0,3.151708841E-1,1.576719761E0,5.536365509E-2
6.181865590E0,8.223172426E-1,1.252031803E0,6.319255829E-1
6.186924236E0,1.192604661E0,8.550601006E-1,1.100113869E0
6.191982882E0,1.491779566E0,3.904299736E-1,1.522890091E0
6.197041528E0,1.911345005E0,-1.428394318E-1,2.045143127E0
6.202125538E0,2.337688208E0,-6.986985207E-1,2.635194778E0
6.207185486E0,2.700150490E0,-1.308239937E0,3.151635170E0
6.212245382E0,2.897264004E0,-1.969144106E0,3.529529572E0
6.217305330E0,2.917572975E0,-2.421149731E0,3.704115868E0
6.222405330E0,2.796821594E0,-2.686117172E0,3.648674011E0
6.227505330E0,2.550448418E0,-2.776420116E0,3.374843597E0
6.232605330E0,2.172866821E0,-2.675138474E0,2.970359802E0
6.237705330E0,1.651809096E0,-2.508022308E0,2.388356209E0
6.242803351E0,1.212618351E0,-2.351780891E0,1.762982368E0
6.247868298E0,9.510340095E-1,-2.186741352E0,1.156002998E0
6.252933194E0,7.520555854E-1,-2.021424055E0,5.138568878E-1
6.257998090E0,5.147378445E-1,-1.811484575E0,-1.025362015E-1
6.262906215E0,3.673641086E-1,-1.606441975E0,-7.869162560E-1
6.267963298E0,2.531610131E-1,-1.408026218E0,-1.375317097E0
6.273020434E0,1.450915337E-1,-1.208354950E0,-1.899195671E0
6.278077465E0,2.843260765E-2,-1.096693993E0,-2.259499073E0
6.283177465E0,-6.769764423E-2,-1.057658672E0,-2.595817089E0
6.288277465E0,-6.595897675E-2,-1.093847752E0,-2.885790348E0
6.293377465E0,-7.982707024E-2,-1.107824326E0,-3.111522198E0
6.298477465E0,-3.118598461E-2,-1.193826675E0,-3.235824108E0
6.303426215E0,1.162102222E-1,-1.325162411E0,-3.289394379E0
6.308484913E0,3.338608146E-1,-1.431490898E0,-3.266437531E0
6.313543559E0,5.524805784E-1,-1.505836487E0,-3.192553997E0
6.318602257E0,7.303256392E-1,-1.509037971E0,-2.992028236E0
6.323686163E0,9.305915833E-1,-1.493295670E0,-2.737153053E0
6.328746111E0,1.184053898E0,-1.539274216E0,-2.404481411E0
6.333806059E0,1.496844530E0,-1.637517452E0,-2.046464443E0
6.338866007E0,1.861332417E0,-1.764141083E0,-1.662874222E0
6.343966007E0,2.178556442E0,-1.867048264E0,-1.210088253E0
6.349066007E0,2.431437254E0,-2.014284611E0,-7.253589630E-1
6.354166007E0,2.621137619E0,-2.163836002E0,-2.076835632E-1
6.359266007E0,2.734086514E0,-2.245287657E0,2.962894440E-1
6.364206267E0,2.780151606E0,-2.343020201E0,7.029843330E-1
6.369267153E0,2.753902435E0,-2.374484777E0,1.078537464E0
6.374328142E0,2.645105362E0,-2.332815886E0,1.401164532E0
6.379389132E0,2.433473587E0,-2.286700964E0,1.638678074E0
6.384489132E0,2.218731642E0,-2.170088530E0,1.834865093E0
6.389589132E0,1.941562891E0,-2.056596041E0,1.938343048E0
6.394689132E0,1.657740831E0,-1.956722975E0,1.959282875E0
6.399789132E0,1.370350838E0,-1.943070173E0,1.902972221E0
6.404694132E0,1.119520426E0,-1.916776896E0,1.799008369E0
6.409707361E0,9.299918413E-1,-1.957266569E0,1.669964790E0
6.414767153E0,8.190913200E-1,-2.031552553E0,1.429919243E0
6.419826944E0,7.089970112E-1,-2.048821211E0,1.164926529E0
6.424926944E0,6.132397056E-1,-2.018324614E0,8.936929703E-1
6.430026944E0,5.123840570E-1,-1.958911657E0,6.158781052E-1
6.435115590E0,4.348731041E-1,-1.869830370E0,3.308553696E-1
6.440180434E0,3.952541351E-1,-1.793426752E0,-1.449584961E-4
6.445280434E0,3.895385861E-1,-1.709669352E0,-2.819504738E-1
6.450380434E0,3.757755756E-1,-1.617797136E0,-6.106791496E-1
6.455480434E0,4.124572873E-1,-1.555225849E0,-9.006514549E-1
6.460580434E0,4.336008430E-1,-1.511591434E0,-1.157104015E0
6.465506163E0,4.927238226E-1,-1.471547127E0,-1.342390537E0
6.470571059E0,5.802788734E-1,-1.410527706E0,-1.533556461E0
6.475635903E0,6.442077160E-1,-1.342306137E0,-1.654421329E0
6.480700746E0,7.135487795E-1,-1.218579292E0,-1.772321701E0
6.485800746E0,7.549976110E-1,-1.139395237E0,-1.877971649E0
6.490900746E0,7.401890159E-1,-1.071217537E0,-1.923515320E0
6.496000746E0,7.551076412E-1,-9.757966995E-1,-1.909004211E0
6.501100746E0,7.755938768E-1,-8.820018768E-1,-1.815280914E0
6.506184288E0,7.915169001E-1,-7.758975029E-1,-1.680454731E0
6.511253142E0,7.925665379E-1,-6.581611633E-1,-1.456360340E0
6.516321996E0,8.308599591E-1,-5.339045525E-1,-1.295966625E0
6.521390851E0,8.487089276E-1,-4.514951706E-1,-1.131888866E0
6.526295851E0,8.844894171E-1,-3.741664886E-1,-9.391798973E-1
6.531347309E0,8.855311275E-1,-3.677387238E-1,-7.951312065E-1
6.536407569E0,9.188758135E-1,-3.233995438E-1,-6.462359428E-1
6.541467778E0,9.411911964E-1,-2.943220139E-1,-4.826359749E-1
6.546567778E0,9.473150969E-1,-2.663826942E-1,-3.281588554E-1
6.551667778E0,9.179457426E-1,-2.399172783E-1,-1.060934067E-1
6.556767778E0,8.671803474E-1,-1.864309311E-1,9.269237518E-2
6.561867778E0,7.664892673E-1,-1.876163483E-1,2.062816620E-1
6.566807153E0,6.791661978E-1,-2.154326439E-1,3.740158081E-1
6.571868351E0,6.095979214E-1,-1.828942299E-1,5.043668747E-1
6.576929548E0,5.776333213E-1,-2.052397728E-1,6.359395981E-1
6.581990746E0,5.019593835E-1,-2.059473991E-1,7.496347427E-1
6.587067153E0,4.353899658E-1,-1.799836159E-1,7.544403076E-1
6.592129080E0,3.591063321E-1,-1.460938454E-1,7.602548599E-1
6.597191059E0,3.259967268E-1,-1.565127373E-1,7.381696701E-1
6.602253038E0,3.360180557E-1,-1.198692322E-1,7.214221954E-1
6.607353038E0,2.793274820E-1,-3.551721573E-2,7.430706024E-1
6.612453038E0,2.324609756E-1,5.870056152E-2,7.645158768E-1
6.617553038E0,2.333832085E-1,1.395006180E-1,8.618707657E-1
6.622653038E0,2.580050528E-1,2.121510506E-1,9.295454025E-1
6.627587257E0,2.540909350E-1,2.574486732E-1,1.058531761E0
6.632649809E0,2.685002983E-1,2.620162964E-1,1.224222183E0
6.637712413E0,3.687350154E-1,2.160892487E-1,1.479390144E0
6.642774965E0,4.639179707E-1,1.674742699E-1,1.713999748E0
6.647874965E0,5.350367427E-1,1.255788803E-1,1.961674690E0
6.652974965E0,5.536687970E-1,5.637693405E-2,2.304046631E0
6.658074965E0,6.055887341E-1,1.692008972E-2,2.679031372E0
6.663174965E0,6.526163816E-1,-4.613351822E-2,2.986574173E0
6.668265226E0,7.141212225E-1,-1.621031761E-1,3.255840302E0
6.673332257E0,7.715563774E-1,-2.457394600E-1,3.501757622E0
6.678399236E0,8.157362938E-1,-3.888678551E-1,3.672263145E0
6.683466319E0,8.376324773E-1,-4.821624756E-1,3.772644997E0
6.688368038E0,8.570445776E-1,-5.600481033E-1,3.832171440E0
6.693426840E0,8.684329987E-1,-5.649333000E-1,3.812439919E0
6.698485642E0,8.340151906E-1,-6.121292114E-1,3.742485046E0
6.703544392E0,8.351142406E-1,-6.537923813E-1,3.598454475E0
6.708644392E0,7.423524857E-1,-6.948766708E-1,3.351817131E0
6.713744392E0,6.324334741E-1,-6.726818085E-1,3.088497162E0
6.718844392E0,5.575647354E-1,-6.587700844E-1,2.913575172E0
6.723944392E0,5.457206964E-1,-6.525139809E-1,2.692677498E0
6.728888038E0,5.296540856E-1,-6.959719658E-1,2.425327301E0
6.733948038E0,3.852984011E-1,-6.652431488E-1,2.145362854E0
6.739008090E0,2.472216934E-1,-6.312565804E-1,1.861900330E0
6.744068090E0,1.249036938E-1,-6.031436920E-1,1.579488754E0
6.749168090E0,3.749907017E-3,-5.137777328E-1,1.360206604E0
6.754268090E0,-9.785950184E-2,-4.677691460E-1,1.074440002E0
6.759368090E0,-1.804464757E-1,-4.022879601E-1,8.462486267E-1
6.764468090E0,-2.634555697E-1,-3.408107758E-1,6.609344482E-1
6.769565851E0,-3.181643784E-1,-2.445187569E-1,4.798545837E-1
6.774630851E0,-4.019998312E-1,-1.415905952E-1,3.504915237E-1
6.779695851E0,-5.247505903E-1,-4.605197906E-2,2.725591660E-1
6.784760851E0,-5.721440315E-1,4.254436493E-2,2.456979752E-1
6.789668663E0,-5.784859061E-1,1.154465675E-1,2.214965820E-1
6.794725798E0,-5.162653923E-1,1.534438133E-1,2.716865540E-1
6.799782986E0,-4.343531430E-1,1.622710228E-1,4.290742874E-1
6.804840121E0,-3.147168458E-1,9.924554825E-2,6.741743088E-1
6.809940121E0,-1.340260506E-1,-1.019115448E-1,9.682903290E-1
6.815040121E0,7.443638146E-2,-3.355574608E-1,1.301725388E0
6.820140121E0,3.209755719E-1,-6.971902847E-1,1.669701576E0
6.825240121E0,5.399765968E-1,-1.024303675E0,2.129859924E0
6.830188663E0,7.059418559E-1,-1.237074614E0,2.558750153E0
6.835247413E0,8.624823093E-1,-1.478587627E0,2.970525742E0
6.840306111E0,9.831393361E-1,-1.764768600E0,3.385346413E0
6.845364861E0,1.069649458E0,-2.097051144E0,3.756253242E0
6.850448611E0,1.142647266E0,-2.381027460E0,4.079226494E0
6.855508611E0,1.102933407E0,-2.595033407E0,4.250261307E0
6.860568611E0,1.041970253E0,-2.735831499E0,4.346772194E0
6.865628611E0,9.072381258E-1,-2.795316219E0,4.336025238E0
6.870728611E0,6.887037754E-1,-2.746007919E0,4.180406570E0
6.875828611E0,4.184118807E-1,-2.608371019E0,3.928483009E0
6.880928611E0,2.189258784E-1,-2.478724718E0,3.580614090E0
6.886028611E0,1.073095575E-1,-2.366956949E0,3.146618843E0
6.890968663E0,8.544780314E-2,-2.291745424E0,2.650257111E0
6.896029601E0,9.551702440E-2,-2.253174067E0,2.101247787E0
6.901090642E0,7.881937176E-2,-2.197465658E0,1.589954376E0
6.906151632E0,5.986914039E-3,-2.119005442E0,1.058525085E0
6.911251632E0,-4.702602327E-2,-2.012455940E0,5.832414627E-1
6.916351632E0,-2.774968743E-2,-1.910209179E0,5.350208282E-2
6.921451632E0,1.821994781E-3,-1.801651001E0,-4.259052277E-1
6.926551632E0,4.178114980E-2,-1.724014282E0,-8.555483818E-1
6.931488767E0,1.454310715E-1,-1.645817757E0,-1.260872364E0
6.936550538E0,2.455934584E-1,-1.592297077E0,-1.636375904E0
6.941612361E0,3.667957187E-1,-1.532575130E0,-1.935461521E0
6.946674132E0,5.193003416E-1,-1.475225687E0,-2.206628799E0
6.951748715E0,6.798225045E-1,-1.438522100E0,-2.440869331E0
6.956811163E0,8.826830983E-1,-1.397588491E0,-2.567083359E0
6.961873559E0,1.056737065E0,-1.365971804E0,-2.624201775E0
6.966936059E0,1.207470417E0,-1.362270117E0,-2.641380310E0
6.972036059E0,1.344751954E0,-1.362499475E0,-2.618755341E0
6.977136059E0,1.478967190E0,-1.371200800E0,-2.542226791E0
6.982236059E0,1.581974149E0,-1.421848059E0,-2.392771721E0
6.987336059E0,1.654406905E0,-1.491071939E0,-2.222761154E0
6.992268871E0,1.716110349E0,-1.531427622E0,-2.051124096E0
6.997331788E0,1.752211928E0,-1.610079527E0,-1.820364475E0
7.002394809E0,1.700396061E0,-1.674903393E0,-1.568480015E0
7.007457726E0,1.674950957E0,-1.736179352E0,-1.285483837E0
7.012528871E0,1.622510076E0,-1.784926891E0,-9.758172035E-1
7.017592257E0,1.542571783E0,-1.874449253E0,-6.773371696E-1
7.022655590E0,1.416001678E0,-1.976730347E0,-4.278364182E-1
7.027718976E0,1.328453422E0,-2.001605034E0,-1.502971649E-1
7.032788976E0,1.207262278E0,-2.007164478E0,7.909297943E-2
7.037852673E0,1.061058998E0,-1.956025600E0,2.752389908E-1
7.042916371E0,9.132781625E-1,-1.901591778E0,4.720621109E-1
7.047980069E0,7.684977055E-1,-1.868119717E0,6.123514175E-1
7.053048976E0,7.028027177E-1,-1.793927193E0,7.873172760E-1
7.058112934E0,6.820192933E-1,-1.789407253E0,9.492712021E-1
7.063176892E0,6.817394495E-1,-1.778153896E0,1.107894897E0
7.068240851E0,6.877034307E-1,-1.703052521E0,1.186811447E0
7.073340851E0,7.287743092E-1,-1.659614086E0,1.233819962E0
7.078440851E0,7.911280990E-1,-1.580893517E0,1.258546829E0
7.083540851E0,8.228771091E-1,-1.457288265E0,1.203579903E0
7.088640851E0,8.578205109E-1,-1.374609947E0,1.131014824E0
7.093727048E0,9.298323393E-1,-1.227212667E0,1.059794426E0
7.098795173E0,1.000846028E0,-1.143818140E0,9.466123581E-1
7.103863351E0,1.037490964E0,-1.009060144E0,8.247270584E-1
7.108931476E0,1.083011866E0,-8.655760288E-1,7.512836456E-1
7.113836476E0,1.123950720E0,-7.843499184E-1,6.540412903E-1
7.118889496E0,1.216339350E0,-6.600065231E-1,6.191148758E-1
7.123949184E0,1.317766905E0,-5.638442039E-1,6.078777313E-1
7.129008871E0,1.413627863E0,-4.479045868E-1,5.915651321E-1
7.134108871E0,1.451420784E0,-2.834682465E-1,5.749378204E-1
7.139208871E0,1.508440375E0,-1.373744011E-1,6.056928635E-1
7.144308871E0,1.637679338E0,-7.202053070E-2,6.169290543E-1
7.149408871E0,1.743863344E0,-4.451942444E-2,6.279087067E-1
7.154349913E0,1.818580508E0,-4.064702988E-2,6.482143402E-1
7.159410642E0,1.918245077E0,-7.985115051E-3,6.780014038E-1
7.164471371E0,1.995577812E0,5.298233032E-2,7.270240784E-1
7.169532153E0,2.060486317E0,1.083836555E-1,7.571640015E-1
7.174632153E0,2.141533852E0,1.293287277E-1,7.398595810E-1
7.179732153E0,2.157510519E0,1.588206291E-1,7.804107666E-1
7.184832153E0,2.141882420E0,1.773777008E-1,8.071966171E-1
7.189932153E0,2.109003782E0,1.802382469E-1,7.580537796E-1
7.195027726E0,2.039820671E0,1.388254166E-1,7.238807678E-1
7.200093298E0,2.001027822E0,1.010308266E-1,7.094564438E-1
7.205158871E0,1.930211306E0,7.642650604E-2,7.291116714E-1
7.210224444E0,1.841550589E0,1.733875275E-2,6.966457367E-1
7.215130590E0,1.754365325E0,-5.174207687E-2,6.261548996E-1
7.220188246E0,1.644546747E0,-1.458477974E-1,5.180997849E-1
7.225245798E0,1.531423330E0,-2.071595192E-1,4.822854996E-1
7.230303403E0,1.467820048E0,-3.025622368E-1,4.181156158E-1
7.235403403E0,1.381809950E0,-3.984923363E-1,3.399600983E-1
7.240503403E0,1.330379009E0,-4.851894379E-1,2.668962479E-1
7.245603403E0,1.308418512E0,-5.192346573E-1,2.034997940E-1
7.250703403E0,1.296383619E0,-5.627589226E-1,1.640777588E-1
7.255650590E0,1.313287020E0,-6.486320496E-1,1.243495941E-1
7.260709653E0,1.316489935E0,-7.054805756E-1,3.191089630E-2
7.265768767E0,1.296591043E0,-8.428735733E-1,-8.242607117E-3
7.270827882E0,1.311176300E0,-9.461469650E-1,-3.911018372E-2
7.275927882E0,1.312888622E0,-1.001129627E0,-4.153537750E-2
7.281027882E0,1.306679249E0,-1.074811220E0,-8.731842041E-2
7.286127882E0,1.345619917E0,-1.100149870E0,-8.082771301E-2
7.291227882E0,1.348688841E0,-1.125331163E0,-6.979370117E-2
7.296327882E0,1.306694150E0,-1.212694407E0,-1.497850418E-1
7.301392569E0,1.268053293E0,-1.256936312E0,-1.724653244E-1
7.306456840E0,1.194488764E0,-1.315906286E0,-2.619810104E-1
7.311521111E0,1.085856438E0,-1.361006021E0,-3.798761368E-1
7.316431215E0,9.837850332E-1,-1.391984701E0,-4.496345520E-1
7.321487778E0,8.601270914E-1,-1.380910158E0,-5.139212608E-1
7.326544340E0,7.082685232E-1,-1.365584612E0,-5.824790001E-1
7.331600851E0,5.939213037E-1,-1.302733660E0,-6.362376213E-1
7.336700851E0,4.684795141E-1,-1.283273458E0,-6.417145729E-1
7.341800851E0,3.934053481E-1,-1.306925058E0,-6.516928673E-1
7.346900851E0,3.731619418E-1,-1.320947409E0,-7.188324928E-1
7.352000851E0,3.407997489E-1,-1.334843397E0,-6.996588707E-1
7.356951111E0,3.770576715E-1,-1.328969717E0,-6.567673683E-1
7.362009392E0,4.065712392E-1,-1.332576513E0,-6.568818092E-1
7.367067621E0,4.246781170E-1,-1.287777185E0,-6.620097160E-1
7.372125851E0,4.413973987E-1,-1.247035980E0,-6.627364159E-1
7.377225851E0,5.004757643E-1,-1.167381287E0,-6.303639412E-1
7.382325851E0,5.446875691E-1,-1.120044708E0,-6.035571098E-1
7.387425851E0,5.648289919E-1,-1.066512108E0,-5.681166649E-1
7.392525851E0,5.896017551E-1,-1.049479961E0,-5.386338234E-1
7.397625851E0,6.047015786E-1,-1.030518532E0,-4.243235588E-1
7.402692465E0,6.431884766E-1,-1.028652191E0,-2.875251770E-1
7.407756007E0,7.000853419E-1,-9.625597000E-1,-1.330499649E-1
7.412819548E0,7.422328591E-1,-9.139032364E-1,1.055145264E-2
7.417731736E0,7.459430695E-1,-8.639631271E-1,1.196508408E-1
7.422787778E0,7.840818167E-1,-8.177704811E-1,2.661581039E-1
7.427843767E0,8.279966116E-1,-7.995238304E-1,4.167366028E-1
7.432899809E0,8.683286905E-1,-8.046684265E-1,4.806842804E-1
7.437999809E0,9.003438354E-1,-8.097147942E-1,5.683984756E-1
7.443099809E0,8.617839217E-1,-8.196029663E-1,6.799564362E-1
7.448199809E0,8.193595409E-1,-7.532887459E-1,7.868137360E-1
7.453299809E0,7.919551730E-1,-6.397356987E-1,8.412704468E-1
7.458399809E0,7.172413468E-1,-6.133127213E-1,8.101749420E-1
7.463471111E0,6.092989445E-1,-5.257472992E-1,8.276052475E-1
7.468532882E0,5.541883707E-1,-4.440145493E-1,8.217315674E-1
7.473594705E0,5.083452463E-1,-4.158420563E-1,7.973127365E-1
7.478512205E0,4.517444372E-1,-3.453330994E-1,7.160005569E-1
7.483566788E0,4.190248549E-1,-3.376340866E-1,6.829929352E-1
7.488621371E0,3.862221241E-1,-3.111820221E-1,6.407232285E-1
7.493675955E0,3.726618886E-1,-2.945604324E-1,6.465072632E-1
7.498771996E0,3.352953494E-1,-2.973895073E-1,6.046791077E-1
7.503828663E0,2.885773480E-1,-2.479014397E-1,5.248603821E-1
7.508885330E0,2.522401512E-1,-2.513055801E-1,4.309711456E-1
7.513941996E0,2.024667561E-1,-2.260932922E-1,3.564214706E-1
7.519041996E0,1.533014476E-1,-1.961941719E-1,2.533550262E-1
7.524141996E0,1.185496449E-1,-1.710090637E-1,2.364749908E-1
7.529241996E0,1.028503031E-1,-1.168761253E-1,1.333894730E-1
7.534341996E0,1.008839086E-1,-6.244087219E-2,1.258764267E-1
7.539441996E0,1.126253605E-1,-6.013393402E-2,7.979011536E-2
7.544511944E0,1.192544103E-1,-8.122968674E-2,4.302787781E-2
7.549574236E0,1.449825764E-1,-7.306098938E-2,1.556015015E-2
7.554636528E0,1.758429408E-1,-1.410107613E-1,1.181697845E-2
7.559709705E0,2.121732235E-1,-2.086377144E-1,3.188896179E-2
7.564772517E0,2.155736536E-1,-2.758898735E-1,6.614971161E-2
7.569835434E0,2.101772130E-1,-3.237204552E-1,8.594799042E-2
7.574898246E0,1.150375307E-1,-3.331069946E-1,7.702350616E-2
7.579812569E0,3.968912363E-2,-3.472571373E-1,5.382442474E-2
7.584867986E0,-5.305019021E-2,-3.950891495E-1,4.525470734E-2
7.589923455E0,-1.877864301E-1,-4.239387512E-1,3.692436218E-2
7.594978871E0,-3.073707819E-1,-4.960002899E-1,1.335144043E-4
7.600072413E0,-4.695299566E-1,-4.969067574E-1,-7.435798645E-2
7.605129757E0,-5.984112024E-1,-5.367403030E-1,-1.626234055E-1
7.610187101E0,-7.133768201E-1,-5.580472946E-1,-2.168416977E-1
7.615244496E0,-7.290200591E-1,-5.942192078E-1,-2.993364334E-1
7.620344496E0,-7.606186271E-1,-5.827236176E-1,-3.672823906E-1
7.625444496E0,-8.181129694E-1,-5.997200012E-1,-4.257826805E-1
7.630544496E0,-8.827925920E-1,-5.683712959E-1,-4.368147850E-1
7.635644496E0,-9.644926786E-1,-5.027875900E-1,-4.293551445E-1
7.640744496E0,-1.001237392E0,-4.937720299E-1,-4.274363518E-1
7.645812882E0,-1.060134292E0,-5.073986053E-1,-3.834900856E-1
7.650875746E0,-1.079175830E0,-5.390305519E-1,-2.353048325E-1
7.655938611E0,-1.044247627E0,-5.743236542E-1,-1.025733948E-1
7.661010121E0,-9.984276891E-1,-5.656089783E-1,5.265235901E-3
7.666073403E0,-8.886898756E-1,-5.848412514E-1,1.314220428E-1
7.671136684E0,-7.337517142E-1,-5.938644409E-1,2.999134064E-1
7.676200017E0,-5.522100925E-1,-5.546612740E-1,4.869680405E-1
7.681112986E0,-4.149534106E-1,-5.437779427E-1,6.686906815E-1
7.686168767E0,-2.933455110E-1,-5.466699600E-1,7.828159332E-1
7.691224548E0,-2.104131281E-1,-5.397315025E-1,9.109888077E-1
7.696280330E0,-1.700318754E-1,-5.087022781E-1,1.000685692E0
7.701372830E0,-1.333574653E-1,-5.114860535E-1,1.104895592E0
7.706430486E0,-1.333871484E-1,-4.954175949E-1,1.161438942E0
7.711488090E0,-1.557713449E-1,-4.463887215E-1,1.227890968E0
7.716545694E0,-2.103091478E-1,-4.364843369E-1,1.242242813E0
7.721645694E0,-2.492127717E-1,-3.891329765E-1,1.252368927E0
7.726745694E0,-2.726051211E-1,-3.092818260E-1,1.263124466E0
7.731845694E0,-3.236790001E-1,-2.688779831E-1,1.265040398E0
7.736945694E0,-3.786427975E-1,-2.296109200E-1,1.253333092E0
7.741892830E0,-4.758087695E-1,-2.108454704E-1,1.165992737E0
7.746951944E0,-6.007695198E-1,-1.840176582E-1,1.074948311E0
7.752011059E0,-7.201246023E-1,-1.919293404E-1,9.465656281E-1
7.757070173E0,-8.676509261E-1,-1.531362534E-1,8.238573074E-1
7.762152778E0,-1.005670786E0,-1.058049202E-1,7.258205414E-1
7.767213038E0,-1.144031763E0,-1.353993416E-1,5.994110107E-1
7.772273351E0,-1.254364848E0,-8.845758438E-2,4.874820709E-1
7.777333611E0,-1.351357579E0,-8.903074265E-2,4.184503555E-1
7.782412778E0,-1.430196881E0,-7.934474945E-2,3.537979126E-1
7.787474028E0,-1.452427626E0,-1.021575928E-1,2.789936066E-1
7.792535278E0,-1.465604663E0,-1.523604393E-1,3.038816452E-1
7.797596528E0,-1.407294154E0,-1.915750504E-1,3.374290466E-1
7.802696528E0,-1.358685613E0,-2.341661453E-1,3.318138123E-1
7.807796528E0,-1.262154579E0,-2.846269608E-1,3.825616837E-1
7.812896528E0,-1.126987815E0,-3.236217499E-1,4.321069717E-1
7.817996528E0,-1.019782901E0,-3.944697380E-1,4.854230881E-1
7.823090590E0,-9.063000679E-1,-4.733047485E-1,5.091190338E-1
7.828156580E0,-8.766705990E-1,-5.173974037E-1,5.608634949E-1
7.833222569E0,-7.962031364E-1,-6.083436012E-1,5.738630295E-1
7.838288507E0,-7.506024837E-1,-6.842918396E-1,5.675621033E-1
7.843193455E0,-7.832070589E-1,-7.362527847E-1,5.614557266E-1
7.848251423E0,-8.599283099E-1,-7.736039162E-1,4.884929657E-1
7.853309340E0,-9.286245704E-1,-8.207225800E-1,4.542398453E-1
7.858367257E0,-1.071156025E0,-8.253335953E-1,3.823289871E-1
7.863453246E0,-1.192547321E0,-8.785419464E-1,2.920255661E-1
7.868512621E0,-1.341445565E0,-8.658633232E-1,1.978797913E-1
7.873571996E0,-1.403484225E0,-8.784804344E-1,6.175994873E-2
7.878631319E0,-1.475001812E0,-8.972902298E-1,-6.846046448E-2
7.883731319E0,-1.560970068E0,-9.319248199E-1,-2.262344360E-1
7.888831319E0,-1.642875910E0,-9.011964798E-1,-3.636703491E-1
7.893931319E0,-1.677795649E0,-9.102168083E-1,-5.000519753E-1
7.899031319E0,-1.709085464E0,-8.965077400E-1,-6.786055565E-1
7.903973403E0,-1.737298012E0,-8.742742538E-1,-8.420462608E-1
7.909033871E0,-1.794811010E0,-8.432340622E-1,-1.004842281E0
7.914094340E0,-1.814855099E0,-8.175845146E-1,-1.167113781E0
7.919154809E0,-1.816584468E0,-7.825737000E-1,-1.309979916E0
7.924233403E0,-1.804553390E0,-7.761363983E-1,-1.438438892E0
7.929294757E0,-1.817047119E0,-7.691822052E-1,-1.557519436E0
7.934356163E0,-1.815488100E0,-7.900676727E-1,-1.672202587E0
7.939417569E0,-1.813988924E0,-7.811555862E-1,-1.686957836E0
7.944517569E0,-1.798210144E0,-7.807579041E-1,-1.673639774E0
7.949617569E0,-1.773076296E0,-8.220682144E-1,-1.713765621E0
7.954717569E0,-1.752957821E0,-8.236470222E-1,-1.735588551E0
7.959817569E0,-1.747470021E0,-7.901496887E-1,-1.715337276E0
7.964753455E0,-1.737919807E0,-7.792005539E-1,-1.719943523E0
7.969815538E0,-1.728215218E0,-7.330789566E-1,-1.701647282E0
7.974877673E0,-1.766620398E0,-7.093567848E-1,-1.669997692E0
7.979939809E0,-1.762220860E0,-6.553564072E-1,-1.610687733E0
7.985039809E0,-1.772244215E0,-6.189203262E-1,-1.609817982E0
7.990139809E0,-1.806762934E0,-6.240081787E-1,-1.523849964E0
7.995239809E0,-1.813470364E0,-6.275296211E-1,-1.424654484E0
8.000339809E0,-1.835911274E0,-5.721468925E-1,-1.336177349E0
8.005273455E0,-1.888777971E0,-5.781760216E-1,-1.205420017E0
8.010336163E0,-1.904715300E0,-5.633087158E-1,-1.085557461E0
8.015398819E0,-1.927133322E0,-5.473537445E-1,-9.762120247E-1
8.020461580E0,-1.903043032E0,-5.207843781E-1,-8.677306175E-1
8.025533559E0,-1.812738419E0,-4.835309982E-1,-7.218184471E-1
8.030596736E0,-1.737248302E0,-4.358220100E-1,-5.766005516E-1
8.035659913E0,-1.700197697E0,-4.063353539E-1,-4.224891663E-1
8.040723038E0,-1.681976914E0,-3.759660721E-1,-3.741836548E-1
8.045823038E0,-1.691670775E0,-3.111939430E-1,-3.023872375E-1
8.050923038E0,-1.690603256E0,-2.171626091E-1,-2.308015823E-1
8.056023038E0,-1.745488167E0,-1.657071114E-1,-1.880464554E-1
8.061123038E0,-1.823217511E0,-9.976530075E-2,-1.021795273E-1
8.066211528E0,-1.852870464E0,4.393100739E-3,-1.152133942E-2
8.071279028E0,-1.858745217E0,7.474613190E-2,4.097366333E-2
8.076346528E0,-1.874784827E0,1.448068619E-1,8.399391174E-2
8.081414028E0,-1.910670996E0,2.528753281E-1,1.366386414E-1
8.086471684E0,-1.937561154E0,3.125495911E-1,1.703586578E-1
8.091538663E0,-1.926561117E0,3.814663887E-1,1.564025879E-1
8.096605694E0,-1.925562739E0,4.307799339E-1,1.953296661E-1
8.101672726E0,-1.963335633E0,5.321874619E-1,2.201347351E-1
8.106731736E0,-1.963677168E0,5.803308487E-1,2.499570847E-1
8.111798351E0,-1.965091705E0,6.567826271E-1,2.703037262E-1
8.116864965E0,-1.929552197E0,7.136745453E-1,3.194160461E-1
8.121931580E0,-1.895219088E0,7.652664185E-1,3.447237015E-1
8.126834601E0,-1.852337480E0,7.725124359E-1,3.562488556E-1
8.131893038E0,-1.805810690E0,7.944025993E-1,4.010171890E-1
8.136951476E0,-1.722128153E0,8.301992416E-1,4.841442108E-1
8.142009965E0,-1.672900319E0,8.606171608E-1,5.387163162E-1
8.147109965E0,-1.605285168E0,8.473496437E-1,6.078577042E-1
8.152209965E0,-1.552014589E0,8.568892479E-1,6.345100403E-1
8.157309965E0,-1.522314191E0,8.841896057E-1,6.523485184E-1
8.162409965E0,-1.468341351E0,9.048671722E-1,6.855049133E-1
8.167354601E0,-1.408907652E0,9.518475533E-1,7.055692673E-1
8.172414392E0,-1.382782698E0,1.006502151E0,7.026557922E-1
8.177474132E0,-1.370868325E0,1.015870094E0,6.291179657E-1
8.182533923E0,-1.354151368E0,1.056344032E0,4.946718216E-1
8.187614548E0,-1.327838898E0,1.132635593E0,3.902692795E-1
8.192675382E0,-1.334898114E0,1.216063023E0,2.919368744E-1
8.197736163E0,-1.299350977E0,1.254471779E0,1.563282013E-1
8.202796944E0,-1.274211168E0,1.353231430E0,3.600597382E-2
8.207896944E0,-1.283685446E0,1.393127918E0,-9.320259094E-2
8.212996944E0,-1.274844646E0,1.431935787E0,-1.835765839E-1
8.218096944E0,-1.271526098E0,1.450814247E0,-2.878971100E-1
8.223196944E0,-1.292614222E0,1.459278584E0,-3.773870468E-1
8.228134601E0,-1.256473303E0,1.496088982E0,-4.235696793E-1
8.233196215E0,-1.297665596E0,1.484513283E0,-4.599542618E-1
8.238257882E0,-1.282093525E0,1.525122643E0,-4.674501419E-1
8.243319548E0,-1.291247129E0,1.565382481E0,-4.748649597E-1
8.248419548E0,-1.301078320E0,1.557355404E0,-4.773445129E-1
8.253519548E0,-1.306650400E0,1.611327648E0,-4.654235840E-1
8.258619548E0,-1.312848330E0,1.602880001E0,-3.913059235E-1
8.263719548E0,-1.305755615E0,1.603827477E0,-3.220663071E-1
8.268812465E0,-1.299860477E0,1.614255428E0,-2.290611267E-1
8.273878767E0,-1.290053606E0,1.648294926E0,-1.026124954E-1
8.278945069E0,-1.237803221E0,1.633989334E0,1.910686493E-2
8.284011371E0,-1.190679312E0,1.638113022E0,6.930637360E-2
8.288915278E0,-1.119050264E0,1.603282452E0,1.390237808E-1
8.293973507E0,-1.076489687E0,1.590865135E0,2.429189682E-1
8.299031684E0,-9.908189774E-1,1.615283489E0,2.661666870E-1
8.304089861E0,-9.436298609E-1,1.595261097E0,3.044643402E-1
8.309189861E0,-9.686275125E-1,1.621677399E0,3.338861465E-1
8.314289861E0,-9.510479569E-1,1.656327724E0,3.304758072E-1
8.319389861E0,-9.296305180E-1,1.694479465E0,3.276929855E-1
8.324489861E0,-8.852471113E-1,1.717154026E0,3.063421249E-1
8.329589861E0,-8.660110235E-1,1.753350258E0,2.519426346E-1
8.334656580E0,-8.382684588E-1,1.769957542E0,2.265348434E-1
8.339720121E0,-8.638640046E-1,1.767138958E0,2.061338425E-1
8.344783611E0,-8.850000501E-1,1.855368614E0,9.966182709E-2
8.349695903E0,-9.007272124E-1,1.887325287E0,6.934547424E-2
8.354751892E0,-9.549924731E-1,1.934083462E0,5.322837830E-2
8.359807882E0,-9.510916471E-1,2.011206627E0,4.113578796E-2
8.364863819E0,-8.989917040E-1,2.052306652E0,6.138801575E-2
8.369963819E0,-8.041116595E-1,2.077028751E0,1.327657700E-1
8.375063819E0,-6.859458685E-1,2.062453270E0,2.737712860E-1
8.380163819E0,-5.594294667E-1,2.018771648E0,4.743928909E-1
8.385263819E0,-4.391986132E-1,1.950956821E0,7.201118469E-1
8.390215798E0,-3.292505443E-1,1.806353092E0,1.082709312E0
8.395273611E0,-2.447721064E-1,1.575590611E0,1.475872993E0
8.400331371E0,-1.608917117E-1,1.373191833E0,1.852017403E0
8.405389184E0,-8.161628246E-2,1.131604195E0,2.235451698E0
8.410489184E0,-3.486260772E-2,9.078650475E-1,2.645569801E0
8.415589184E0,-5.195319653E-3,6.818037033E-1,3.006427765E0
8.420689184E0,3.214445710E-2,4.573955536E-1,3.375945091E0
8.425789184E0,2.525639534E-2,2.622799873E-1,3.711640358E0
8.430735798E0,-2.504131198E-2,1.235432625E-1,3.990470886E0
8.435795017E0,-1.045805216E-1,-5.428504944E-2,4.178860664E0
8.440854288E0,-1.507415771E-1,-1.578984261E-1,4.311170578E0
8.445913507E0,-1.924024522E-1,-2.935738564E-1,4.392713547E0
8.450995746E0,-1.964023411E-1,-4.047985077E-1,4.361807823E0
8.456056111E0,-2.160684764E-1,-4.684929848E-1,4.199825287E0
8.461116528E0,-2.236353457E-1,-5.904262066E-1,3.969305992E0
8.466176892E0,-1.914981604E-1,-5.984599590E-1,3.699039459E0
8.471276892E0,-1.781488955E-1,-5.887658596E-1,3.360542297E0
8.476376892E0,-1.512108445E-1,-5.710914135E-1,2.920481682E0
8.481476892E0,-1.064356565E-1,-6.264350414E-1,2.498400688E0
8.486576892E0,-2.556908131E-2,-6.541945934E-1,2.127726555E0
8.491515798E0,6.135475636E-2,-7.439558506E-1,1.721631050E0
8.496577101E0,1.638827026E-1,-8.254368305E-1,1.252328873E0
8.501638403E0,2.820354104E-1,-8.877766132E-1,7.671298981E-1
8.506699757E0,4.451680779E-1,-9.353034496E-1,2.850542068E-1
8.511799757E0,5.486915112E-1,-9.772412777E-1,-1.604919434E-1
8.516899757E0,5.647063255E-1,-1.031634092E0,-6.226339340E-1
8.521999757E0,6.419266462E-1,-1.073897600E0,-1.044233799E0
8.527099757E0,7.137601376E-1,-1.103307009E0,-1.440022945E0
8.532035851E0,7.807275057E-1,-1.121950865E0,-1.854576588E0
8.537097882E0,8.618014455E-1,-1.142153978E0,-2.195418358E0
8.542159965E0,9.432350397E-1,-1.176018476E0,-2.521292686E0
8.547221996E0,9.628574252E-1,-1.208392382E0,-2.789668083E0
8.552295851E0,9.972232580E-1,-1.224612713E0,-3.077365875E0
8.557358507E0,1.036937952E0,-1.281206608E0,-3.313211441E0
8.562421163E0,1.044247150E0,-1.306112289E0,-3.497490883E0
8.567483819E0,1.033550739E0,-1.342031479E0,-3.640146255E0
8.572583819E0,1.000306368E0,-1.441552877E0,-3.755649090E0
8.577683819E0,9.731748104E-1,-1.498524427E0,-3.849453449E0
8.582783819E0,8.897331953E-1,-1.575072527E0,-3.940873623E0
8.587883819E0,8.168523908E-1,-1.584904909E0,-3.977513790E0
8.592973819E0,6.920990944E-1,-1.628173113E0,-4.017155170E0
8.598040903E0,6.252170801E-1,-1.633019686E0,-3.969061375E0
8.603107934E0,5.538284779E-1,-1.618330717E0,-3.943596363E0
8.608175069E0,4.587383568E-1,-1.631773233E0,-3.864387035E0
8.613076580E0,4.019145966E-1,-1.615568876E0,-3.703085423E0
8.618135434E0,3.544511199E-1,-1.637200117E0,-3.516872406E0
8.623194236E0,3.065817952E-1,-1.677571535E0,-3.296166420E0
8.628253090E0,2.774646878E-1,-1.722536802E0,-3.103013039E0
8.633353090E0,2.195145488E-1,-1.796188116E0,-2.889391899E0
8.638453090E0,1.908297986E-1,-1.851400137E0,-2.688246727E0
8.643553090E0,9.617938101E-2,-1.873966455E0,-2.485079765E0
8.648653090E0,1.210263371E-2,-1.845272303E0,-2.212575912E0
8.653596632E0,-5.283355713E-2,-1.795539618E0,-1.955926895E0
8.658656684E0,-1.279564500E-1,-1.742731333E0,-1.687193394E0
8.663716736E0,-1.470805705E-1,-1.668967485E0,-1.439033985E0
8.668776788E0,-1.487909257E-1,-1.608195066E0,-1.239809513E0
8.673876788E0,-1.284485757E-1,-1.498294115E0,-1.008092403E0
8.678976788E0,-5.275419354E-2,-1.440570116E0,-8.007760048E-1
8.684076788E0,3.071320057E-2,-1.339619398E0,-6.271767616E-1
8.689176788E0,7.900185883E-2,-1.229236841E0,-4.201245308E-1
8.694274444E0,1.450407207E-1,-1.176849604E0,-2.415370941E-1
8.699339496E0,1.862318367E-1,-1.063487053E0,-1.244449615E-1
8.704404496E0,2.221554816E-1,-9.132227898E-1,-2.568531036E-2
8.709469548E0,2.343471944E-1,-7.982478142E-1,6.456947327E-2
8.714534496E0,2.472524047E-1,-6.852765083E-1,1.894960403E-1
8.719599548E0,2.467133105E-1,-5.649299622E-1,2.343540192E-1
8.724664548E0,2.430163920E-1,-4.998130798E-1,1.755638123E-1
8.729729601E0,1.886911541E-1,-4.086642265E-1,1.424112320E-1
8.734794601E0,1.313305348E-1,-3.155808449E-1,6.317615509E-2
8.739859653E0,8.035787940E-2,-1.870059967E-1,-7.651233673E-2
8.744924653E0,1.577496529E-2,-2.281332016E-2,-2.336769104E-1
8.749989705E0,-5.814580619E-2,1.056714058E-1,-4.277153015E-1
8.754897413E0,-1.561450511E-1,2.608799934E-1,-6.204657555E-1
8.759954548E0,-2.070701122E-1,3.962516785E-1,-7.744221687E-1
8.765011736E0,-2.592915297E-1,5.167388916E-1,-9.232020378E-1
8.770068923E0,-2.459615171E-1,5.940856934E-1,-1.004879475E0
8.775168923E0,-2.726846933E-1,6.813249588E-1,-1.072355747E0
8.780268923E0,-2.863940001E-1,7.644305229E-1,-1.116256237E0
8.785368923E0,-2.628402710E-1,7.813801765E-1,-1.151023388E0
8.790468923E0,-2.921712399E-1,8.519182205E-1,-1.119316578E0
8.795568923E0,-2.781360149E-1,8.659377098E-1,-1.069003582E0
8.800637830E0,-2.683270574E-1,8.568415642E-1,-1.009585857E0
8.805700538E0,-2.577466965E-1,8.869037628E-1,-9.602398872E-1
8.810763246E0,-2.220473439E-1,9.176979065E-1,-8.969674110E-1
8.815677934E0,-1.990727484E-1,9.102945328E-1,-8.289799690E-1
8.820733246E0,-1.795069873E-1,9.278535843E-1,-7.472319603E-1
8.825788559E0,-2.061531544E-1,9.650120735E-1,-7.088274956E-1
8.830843871E0,-2.407337278E-1,9.593882561E-1,-6.131792068E-1
8.835943871E0,-2.690688968E-1,9.493751526E-1,-5.751800537E-1
8.841043871E0,-3.392854631E-1,9.727807045E-1,-4.749555588E-1
8.846143871E0,-4.037927389E-1,1.000724792E0,-3.651161194E-1
8.851243871E0,-4.533643425E-1,9.754791260E-1,-2.933282852E-1
8.856197830E0,-4.979284108E-1,9.443087578E-1,-1.492309570E-1
8.861255069E0,-5.375769138E-1,9.367218018E-1,-4.333686829E-2
8.866312361E0,-5.918132067E-1,9.282093048E-1,6.772994995E-2
8.871369601E0,-6.223835945E-1,8.852448463E-1,1.935472488E-1
8.876469601E0,-6.338740587E-1,8.268337250E-1,3.007001877E-1
8.881569601E0,-6.210211515E-1,7.573523521E-1,3.798637390E-1
8.886669601E0,-5.835462809E-1,7.100934982E-1,4.646472931E-1
8.891769601E0,-5.642815828E-1,6.657032967E-1,5.407915115E-1
8.896869601E0,-5.820725560E-1,6.479873657E-1,5.940093994E-1
8.901938298E0,-5.798833370E-1,6.471195221E-1,6.435651779E-1
8.907001111E0,-5.867676735E-1,6.680402756E-1,6.511077881E-1
8.912063871E0,-5.931012034E-1,7.152686119E-1,6.215896606E-1
8.916978351E0,-5.846145749E-1,7.552123070E-1,5.981407166E-1
8.922033715E0,-5.750629306E-1,7.779998779E-1,5.235404968E-1
8.927089080E0,-5.645658374E-1,8.124046326E-1,4.552192688E-1
8.932144496E0,-5.676741600E-1,8.584146500E-1,3.214406967E-1
8.937244496E0,-5.513351560E-1,9.257063866E-1,2.083120346E-1
8.942344496E0,-5.545368791E-1,9.809675217E-1,1.013622284E-1
8.947444496E0,-5.491193533E-1,1.067553043E0,3.390789032E-2
8.952544496E0,-5.352704525E-1,1.147601128E0,-1.234436035E-1
8.957498298E0,-5.085965395E-1,1.231563091E0,-2.419109344E-1
8.962555590E0,-4.685239196E-1,1.299563885E0,-3.450469971E-1
8.967612882E0,-4.583054781E-1,1.366865635E0,-4.142065048E-1
8.972670226E0,-4.110621810E-1,1.429263115E0,-4.736490250E-1
8.977758142E0,-3.746850789E-1,1.453540802E0,-4.996147156E-1
8.982816996E0,-3.298078775E-1,1.512264729E0,-4.973449707E-1
8.987875851E0,-2.712786794E-1,1.543520451E0,-4.718198776E-1
8.992934705E0,-2.514764965E-1,1.523613930E0,-4.088268280E-1
8.997978819E0,-2.269910574E-1,1.538926125E0,-2.989797592E-1
9.003036944E0,-1.975874007E-1,1.527141094E0,-1.566343307E-1
9.008095017E0,-2.013663054E-1,1.521852016E0,-1.058006287E-2
9.013153194E0,-2.048520148E-1,1.518259525E0,2.156925201E-1
9.018253194E0,-1.936312318E-1,1.530718803E0,3.929424286E-1
9.023353194E0,-2.392197847E-1,1.525544167E0,6.122045517E-1
9.028453194E0,-2.455163896E-1,1.512363434E0,7.921037674E-1
9.033553194E0,-2.598049939E-1,1.515046597E0,9.853429794E-1
9.038538194E0,-2.913143933E-1,1.533326149E0,1.177702904E0
9.043598663E0,-3.106960356E-1,1.538377762E0,1.268841743E0
9.048659132E0,-3.561303914E-1,1.563838005E0,1.407068253E0
9.053719601E0,-3.748442531E-1,1.652570724E0,1.506340981E0
9.058819601E0,-3.907693624E-1,1.685119629E0,1.647919655E0
9.063919601E0,-4.432147145E-1,1.714200497E0,1.759969711E0
9.069019601E0,-4.757212996E-1,1.706385612E0,1.852036476E0
9.074119601E0,-5.371462107E-1,1.719106197E0,1.962371826E0
9.079058246E0,-5.569570065E-1,1.742573738E0,2.057528496E0
9.084119653E0,-5.537396669E-1,1.700534344E0,2.166086197E0
9.089181007E0,-5.619032383E-1,1.626392365E0,2.326330185E0
9.094242413E0,-4.956724644E-1,1.520244598E0,2.504664421E0
9.099318194E0,-4.223424196E-1,1.348512173E0,2.667651176E0
9.104380278E0,-3.755038977E-1,1.211559772E0,2.824950218E0
9.109442413E0,-3.260377944E-1,1.041954517E0,2.938569069E0
9.114504496E0,-3.547236919E-1,8.394975662E-1,3.109154701E0
9.119604496E0,-3.748232722E-1,6.805229187E-1,3.236358643E0
9.124704496E0,-3.620253503E-1,4.496145248E-1,3.315793991E0
9.129804496E0,-3.732220232E-1,2.610621452E-1,3.371774673E0
9.134904496E0,-3.835827410E-1,1.430115700E-1,3.380727768E0
9.139838298E0,-3.735639453E-1,-1.180648804E-3,3.367130280E0
9.144901007E0,-3.477813601E-1,-1.807527542E-1,3.316507339E0
9.149963663E0,-3.592644930E-1,-2.908139229E-1,3.243421555E0
9.155026371E0,-3.414931893E-1,-4.273934364E-1,3.128896713E0
9.160126371E0,-2.806377411E-1,-5.089941025E-1,2.982430458E0
9.165226371E0,-2.202243209E-1,-5.740599632E-1,2.765838623E0
9.170326371E0,-1.363736391E-1,-6.753482819E-1,2.527103424E0
9.175426371E0,-4.795438051E-2,-8.033421040E-1,2.295019150E0
9.180358403E0,4.045110941E-2,-8.764631748E-1,2.007298470E0
9.185421580E0,1.197558641E-1,-9.769089222E-1,1.664504051E0
9.190484705E0,2.235718668E-1,-1.061547041E0,1.304963112E0
9.195547882E0,2.902980447E-1,-1.139878511E0,8.617706299E-1
9.200647882E0,2.536961734E-1,-1.202562571E0,3.687076569E-1
9.205747882E0,1.859632432E-1,-1.249431849E0,-9.767341614E-2
9.210847882E0,9.176987410E-2,-1.251744986E0,-5.804386139E-1
9.215947882E0,-2.936244011E-2,-1.252351046E0,-1.098811626E0
9.221036371E0,-1.684522033E-1,-1.231638193E0,-1.600399494E0
9.226103819E0,-2.926578522E-1,-1.236887217E0,-2.023375988E0
9.231171319E0,-3.836072087E-1,-1.243576765E0,-2.454274178E0
9.236238871E0,-5.522909760E-1,-1.231856108E0,-2.826601982E0
9.241139184E0,-7.522060275E-1,-1.151776552E0,-3.146611214E0
9.246198351E0,-9.210312366E-1,-1.091724873E0,-3.389144897E0
9.251257517E0,-1.074117541E0,-1.044919014E0,-3.598627090E0
9.256316684E0,-1.293438196E0,-9.150228500E-1,-3.766041756E0
9.261416684E0,-1.455386519E0,-8.214240074E-1,-3.867819309E0
9.266516684E0,-1.575055361E0,-7.345623970E-1,-3.909441471E0
9.271616684E0,-1.691360116E0,-6.442627907E-1,-3.910589695E0
9.276716684E0,-1.818783998E0,-5.882711411E-1,-3.823864460E0
9.281659236E0,-1.870661259E0,-5.704798698E-1,-3.673797607E0
9.286719548E0,-1.910322666E0,-5.392050743E-1,-3.440802574E0
9.291779861E0,-1.888545990E0,-5.656938553E-1,-3.235157013E0
9.296840173E0,-1.813926816E0,-6.356425285E-1,-2.932291031E0
9.301919132E0,-1.703987122E0,-7.253446579E-1,-2.632422447E0
9.306980382E0,-1.599909306E0,-8.252439499E-1,-2.335371971E0
9.312041632E0,-1.452816844E0,-8.588976860E-1,-1.974050522E0
9.317102934E0,-1.362335920E0,-8.599905968E-1,-1.605792522E0
9.322202934E0,-1.290130496E0,-8.764920235E-1,-1.254449368E0
9.327302934E0,-1.221069574E0,-8.799266815E-1,-9.293713570E-1
9.332402934E0,-1.212099314E0,-8.371915817E-1,-5.585446358E-1
9.337502934E0,-1.119211912E0,-8.203639984E-1,-2.135696411E-1
9.342439184E0,-9.602701664E-1,-8.449110985E-1,1.541728973E-1
9.347501163E0,-8.758230805E-1,-8.716959953E-1,5.201520920E-1
9.352563194E0,-8.650012016E-1,-9.210090637E-1,8.707714081E-1
9.357625226E0,-8.511875272E-1,-9.932379723E-1,1.220643044E0
9.362699184E0,-8.819289207E-1,-1.064982414E0,1.517484665E0
9.367761840E0,-1.004976153E0,-1.151283503E0,1.843062401E0
9.372824444E0,-1.148544312E0,-1.214558363E0,2.125998497E0
9.377887048E0,-1.389008284E0,-1.308387518E0,2.328623772E0
9.382987048E0,-1.635340691E0,-1.361650705E0,2.508780479E0
9.388087048E0,-1.810911655E0,-1.422893763E0,2.571207047E0
9.393187048E0,-2.045342922E0,-1.502070189E0,2.578415871E0
9.398287048E0,-2.233633280E0,-1.546947479E0,2.525896072E0
9.403219288E0,-2.395323753E0,-1.624895096E0,2.351742744E0
9.408282413E0,-2.530657291E0,-1.692257881E0,2.146624565E0
9.413345486E0,-2.592104673E0,-1.725178242E0,1.857993126E0
9.418408611E0,-2.661445856E0,-1.775807858E0,1.547832489E0
9.423400746E0,-2.730005026E0,-1.766858578E0,1.182251930E0
9.428460330E0,-2.711912394E0,-1.736414909E0,8.185720444E-1
9.433519809E0,-2.713063478E0,-1.736546993E0,4.468946457E-1
9.438579392E0,-2.661702871E0,-1.723525047E0,9.076595306E-2
9.443679392E0,-2.567191362E0,-1.677743912E0,-2.309818268E-1
9.448779392E0,-2.539942741E0,-1.613158703E0,-5.282187462E-1
9.453879392E0,-2.465007067E0,-1.581977606E0,-8.203511238E-1
9.458979392E0,-2.395024538E0,-1.559739828E0,-1.074212551E0
9.464079392E0,-2.301071644E0,-1.546012640E0,-1.294886112E0
9.469179392E0,-2.235716820E0,-1.521475554E0,-1.492089748E0
9.474277153E0,-2.146436691E0,-1.481038809E0,-1.666055202E0
9.479336736E0,-2.038089752E0,-1.453224897E0,-1.831282139E0
9.484417621E0,-2.010776758E0,-1.428413630E0,-1.954322338E0
9.489482257E0,-1.921020269E0,-1.387251139E0,-2.006676197E0
9.494546840E0,-1.831083298E0,-1.358568907E0,-2.064881325E0
9.499611423E0,-1.755196095E0,-1.328052759E0,-2.095420837E0
9.504520486E0,-1.683823109E0,-1.324508905E0,-2.117391586E0
9.509577309E0,-1.625724673E0,-1.324109793E0,-2.130698204E0
9.514634184E0,-1.581268072E0,-1.317523718E0,-2.139997482E0
9.519691007E0,-1.507352352E0,-1.300255060E0,-2.078162193E0
9.524780330E0,-1.394949436E0,-1.263032198E0,-2.002518177E0
9.529838819E0,-1.316379786E0,-1.206427813E0,-2.017988682E0
9.534897309E0,-1.228376508E0,-1.159209967E0,-2.062250137E0
9.539955746E0,-1.173601151E0,-1.116889715E0,-2.072889328E0
9.545055746E0,-1.123173714E0,-1.069886923E0,-2.088204384E0
9.550155746E0,-1.048912406E0,-1.018455982E0,-2.055460930E0
9.555255746E0,-1.008412123E0,-8.622579575E-1,-2.070328712E0
9.560355746E0,-1.016338825E0,-7.353715897E-1,-2.041882515E0
9.565300278E0,-1.097369313E0,-6.185460091E-1,-2.013323307E0
9.570360069E0,-1.174376011E0,-4.924292564E-1,-2.018229961E0
9.575419861E0,-1.204699039E0,-3.713741302E-1,-1.989638805E0
9.580479653E0,-1.255585909E0,-2.457804680E-1,-1.903717518E0
9.585579653E0,-1.284562111E0,-8.204984665E-2,-1.798919201E0
9.590679653E0,-1.292034864E0,1.102571487E-1,-1.684895992E0
9.595779653E0,-1.292632103E0,2.689681053E-1,-1.566484928E0
9.600879653E0,-1.300938129E0,3.940887451E-1,-1.414994717E0
9.605820330E0,-1.321942329E0,5.573921204E-1,-1.273522854E0
9.610881163E0,-1.245979905E0,6.777477264E-1,-1.113509655E0
9.615941944E0,-1.155006886E0,8.413877487E-1,-9.398446083E-1
9.621002830E0,-1.059420586E0,9.431605339E-1,-7.000441551E-1
9.626080278E0,-8.693939447E-1,1.045975208E0,-3.802690506E-1
9.631141944E0,-6.432881355E-1,1.179015160E0,-4.786014557E-2
9.636203611E0,-3.912104368E-1,1.261559010E0,3.781557083E-1
9.641265278E0,-1.078194380E-1,1.289340973E0,8.210172653E-1
9.646365278E0,1.315198243E-1,1.363265514E0,1.271080017E0
9.651465278E0,3.482950628E-1,1.425714970E0,1.786033630E0
9.656565278E0,5.734107494E-1,1.433412552E0,2.236975670E0
9.661665278E0,8.378499746E-1,1.462630749E0,2.662535667E0
9.666600330E0,1.163971305E0,1.435451984E0,3.144889832E0
9.671662673E0,1.383109808E0,1.458106995E0,3.587710381E0
9.676725017E0,1.559923887E0,1.510129929E0,3.915233612E0
9.681787361E0,1.705530763E0,1.513821125E0,4.066003799E0
9.686887361E0,1.763742685E0,1.511612892E0,4.097916603E0
9.691987361E0,1.764105797E0,1.578775883E0,4.073889732E0
9.697087361E0,1.686712027E0,1.686010838E0,3.936806679E0
9.702187361E0,1.467628360E0,1.861593246E0,3.739559174E0
9.707120434E0,1.190506101E0,2.052627087E0,3.525334358E0
9.712183298E0,9.389261603E-1,2.222297668E0,3.336391449E0
9.717246163E0,8.008244634E-1,2.366070747E0,3.067344666E0
9.722309028E0,7.601784468E-1,2.436812401E0,2.823136330E0
9.727409028E0,7.015525699E-1,2.440189362E0,2.574616432E0
9.732509028E0,6.583108902E-1,2.463143349E0,2.397903442E0
9.737609028E0,6.159272790E-1,2.429657936E0,2.244818687E0
9.742709028E0,5.933706760E-1,2.378733158E0,2.172389030E0
9.747798298E0,6.002920270E-1,2.267605782E0,2.161279678E0
9.752865590E0,6.461397409E-1,2.068040848E0,2.187338829E0
9.757932830E0,7.075787783E-1,1.837522507E0,2.274486542E0
9.763000121E0,7.859351039E-1,1.576100826E0,2.360507965E0
9.768058403E0,8.782130480E-1,1.369441509E0,2.483914375E0
9.773125226E0,9.474847913E-1,1.154544830E0,2.597221375E0
9.778192048E0,1.028873086E0,9.545335770E-1,2.657772064E0
9.783258819E0,1.056533575E0,8.017168045E-1,2.704421043E0
9.788161163E0,1.008018494E0,6.463880539E-1,2.704538345E0
9.793219809E0,9.784547091E-1,4.986767769E-1,2.657871246E0
9.798278403E0,9.346998334E-1,4.189438820E-1,2.507921219E0
9.803336996E0,8.373637199E-1,3.394556046E-1,2.346007347E0
9.808436996E0,7.187029123E-1,3.457994461E-1,2.091084480E0
9.813536996E0,6.255203485E-1,3.753929138E-1,1.781681061E0
9.818636996E0,5.279103518E-1,3.895049095E-1,1.408537865E0
9.823736996E0,5.397590399E-1,3.883948326E-1,1.100773811E0
9.828681163E0,6.117188931E-1,3.249330521E-1,7.336883545E-1
9.833741059E0,6.512821317E-1,2.897243500E-1,4.127969742E-1
9.838800955E0,6.961134076E-1,2.643575668E-1,9.469509125E-2
9.843860851E0,7.076349854E-1,2.491302490E-1,-2.159261703E-1
9.848941163E0,6.808598042E-1,2.254633904E-1,-5.192785263E-1
9.854002048E0,6.498700380E-1,1.942672729E-1,-7.679357529E-1
9.859062986E0,6.918267608E-1,1.799764633E-1,-1.029128551E0
9.864123871E0,6.877568960E-1,1.309299469E-1,-1.269815922E0
9.869223871E0,7.672442198E-1,3.333234787E-2,-1.475902081E0
9.874323871E0,8.354446888E-1,-8.781862259E-2,-1.595360279E0
9.879423871E0,9.076845050E-1,-2.076458931E-1,-1.705344677E0
9.884523871E0,9.945492744E-1,-3.013105392E-1,-1.830341816E0
9.889618923E0,1.020609140E0,-3.778271675E-1,-1.913357258E0
9.894684653E0,1.063429594E0,-5.035467148E-1,-1.930984974E0
9.899750382E0,1.080343485E0,-6.062941551E-1,-1.902738094E0
9.904816059E0,1.081361771E0,-7.190189362E-1,-1.867340565E0
9.909878976E0,1.047572374E0,-7.985091209E-1,-1.848887920E0
9.914944548E0,1.007977009E0,-9.118387699E-1,-1.766090870E0
9.920010121E0,9.631896019E-1,-1.020763159E0,-1.666911602E0
9.925075694E0,8.801286221E-1,-1.149541140E0,-1.560807705E0
9.929981788E0,7.685014009E-1,-1.308106661E0,-1.438025951E0
9.935039444E0,6.569556594E-1,-1.439675808E0,-1.360395908E0
9.940096996E0,5.115873814E-1,-1.549529552E0,-1.265390873E0
9.945154653E0,3.273406029E-1,-1.695807934E0,-1.200412273E0
9.950241684E0,8.474695683E-2,-1.769202709E0,-1.184092045E0
9.955300798E0,-1.645680070E-1,-1.789371967E0,-1.153862476E0
9.960359861E0,-3.304972649E-1,-1.833356380E0,-1.061597347E0
9.965418976E0,-5.286164284E-1,-1.892236233E0,-1.083893299E0
9.970518976E0,-7.401523590E-1,-1.880556583E0,-1.196304798E0
9.975618976E0,-9.032351971E-1,-1.870443821E0,-1.278971195E0
9.980718976E0,-1.008697510E0,-1.867096424E0,-1.417763233E0
9.985818976E0,-1.118953228E0,-1.865722656E0,-1.579129696E0
9.990918976E0,-1.210417151E0,-1.852209568E0,-1.782022953E0
9.995983663E0,-1.283514977E0,-1.811729908E0,-1.916659832E0
1.000104788E1,-1.348057747E0,-1.753767967E0,-2.141002178E0
1.000611215E1,-1.466785431E0,-1.658848286E0,-2.302089691E0
1.001117939E1,-1.577879906E0,-1.526509285E0,-2.491144180E0
1.001624382E1,-1.672420502E0,-1.418632507E0,-2.665265083E0
1.002130819E1,-1.712464452E0,-1.320200205E0,-2.767447472E0
1.002637262E1,-1.764939308E0,-1.273783922E0,-2.903267860E0
1.003128226E1,-1.767670274E0,-1.202136278E0,-2.924818039E0
1.003633892E1,-1.739466429E0,-1.134063959E0,-2.980468750E0
1.004139559E1,-1.718288183E0,-1.054799795E0,-2.974781036E0
1.004645226E1,-1.703775644E0,-1.031177282E0,-2.994006157E0
1.005154210E1,-1.666671276E0,-9.577729702E-1,-2.932995796E0
1.005660043E1,-1.582981706E0,-9.205977917E-1,-2.873229980E0
1.006165882E1,-1.514144182E0,-8.862292767E-1,-2.848149300E0
1.006671715E1,-1.431118727E0,-8.353929520E-1,-2.738233566E0
1.007181715E1,-1.333788395E0,-7.822484970E-1,-2.653700829E0
1.007691715E1,-1.250515819E0,-7.414412498E-1,-2.575223923E0
1.008201715E1,-1.214749336E0,-6.604428291E-1,-2.440564156E0
1.008711715E1,-1.145044565E0,-6.109461784E-1,-2.321569443E0
1.009221715E1,-1.098697186E0,-5.597190857E-1,-2.203706741E0
1.009728346E1,-1.089855909E0,-5.260648727E-1,-2.082088947E0
1.010234710E1,-1.080372930E0,-4.621214867E-1,-1.928017139E0
1.010741075E1,-1.127727270E0,-4.302701950E-1,-1.784462452E0
1.011247981E1,-1.155557394E0,-3.923215866E-1,-1.632201672E0
1.011754377E1,-1.207075953E0,-3.436279297E-1,-1.428115368E0
1.012260767E1,-1.229745626E0,-3.130946159E-1,-1.248664379E0
1.012767158E1,-1.252486467E0,-2.627058029E-1,-1.074531078E0
1.013273986E1,-1.265896678E0,-2.501235008E-1,-8.673043251E-1
1.013780398E1,-1.250544548E0,-1.992440224E-1,-6.746091843E-1
1.014286814E1,-1.259023070E0,-1.006612778E-1,-4.581136703E-1
1.014793231E1,-1.210018277E0,-2.189874649E-2,-2.032346725E-1
1.015284267E1,-1.175687075E0,5.023384094E-2,2.363586426E-2
1.015789913E1,-1.084495068E0,1.406226158E-1,2.124624252E-1
1.016295559E1,-9.988452196E-1,2.194437981E-1,4.308052063E-1
1.016801205E1,-9.140875936E-1,3.099598885E-1,5.163459778E-1
1.017311205E1,-7.870675325E-1,4.022006989E-1,6.128969193E-1
1.017821205E1,-6.651695967E-1,5.050687790E-1,6.824789047E-1
1.018331205E1,-5.242490172E-1,5.991668701E-1,6.630563736E-1
1.018841205E1,-3.256805837E-1,7.370905876E-1,5.882024765E-1
1.019351205E1,-2.126693130E-1,8.709435463E-1,5.058002472E-1
1.019858241E1,-1.077699661E-1,1.010577202E0,3.726501465E-1
1.020364460E1,-1.045921445E-2,1.151580334E0,2.412233353E-1
1.020870668E1,5.077460408E-2,1.251127720E0,6.836986542E-2
1.021362309E1,2.306762338E-2,1.377200127E0,-7.937049866E-2
1.021867793E1,-2.154879272E-2,1.472207069E0,-2.593250275E-1
1.022373283E1,-8.388473094E-2,1.589675903E0,-4.001207352E-1
1.022878767E1,-2.079054415E-1,1.663101673E0,-4.637527466E-1
1.023388767E1,-2.794985771E-1,1.745252132E0,-4.981689453E-1
1.023898767E1,-3.617488742E-1,1.803170204E0,-5.275669098E-1
1.024408767E1,-4.312328100E-1,1.841782093E0,-5.615644455E-1
1.024918767E1,-4.256073833E-1,1.913871765E0,-5.619831085E-1
1.025428767E1,-4.023343027E-1,1.923995495E0,-5.289983749E-1
1.025936148E1,-3.611837029E-1,1.963602543E0,-5.298824310E-1
1.026442236E1,-3.163403571E-1,2.013668537E0,-4.881582260E-1
