"Time (s)","Linear Acceleration x (m/s^2)","Linear Acceleration y (m/s^2)","Linear Acceleration z (m/s^2)"
3.945733100E-2,-5.277204514E-1,9.315519333E-1,1.459561825E0
5.520120600E-2,-5.241034031E-1,8.866777420E-1,1.649256706E0
6.816064300E-2,-4.651689529E-1,7.686715126E-1,1.706808567E0
7.957486200E-2,-3.281817436E-1,6.034741402E-1,1.531154156E0
9.030947100E-2,-1.850583553E-1,3.986215591E-1,9.047231674E-1
1.006167760E-1,7.452440262E-2,1.253128052E-3,4.771013260E-1
1.109304280E-1,1.882781982E-1,1.319537163E-1,1.316404343E-1
1.214882540E-1,1.228392124E-1,1.146521568E-1,-1.949310303E-2
1.312326670E-1,-6.306791306E-2,1.740398407E-1,4.857740402E-1
1.411563740E-1,5.355639458E-1,2.040748596E-1,8.912334442E-1
1.511487270E-1,6.255537271E-1,6.100416183E-2,1.026700020E0
1.611479040E-1,-3.977174759E-1,2.067887783E0,-3.552532196E-2
1.713114920E-1,-7.424600124E-1,3.178288937E0,-1.226511002E-1
1.811112860E-1,-1.037924051E0,2.844085693E0,-7.286987305E-1
1.910261830E-1,-6.464105844E-1,1.973592758E0,-8.884701729E-1
2.011286320E-1,8.845562935E-1,2.584280968E-1,-2.071533203E-1
2.110883560E-1,1.994016409E0,-9.508428574E-1,-8.730697632E-1
2.209992180E-1,3.063595295E0,-2.098521709E0,-1.814148903E0
2.310006490E-1,4.141320705E0,-3.007112026E0,-2.919130802E0
2.412968650E-1,5.248366833E0,-3.288286448E0,-3.072039127E0
2.511449730E-1,5.289246559E0,-3.631573200E0,-2.669984341E0
2.611395270E-1,4.779879570E0,-3.932033062E0,-2.105255604E0
2.710708040E-1,1.617831826E0,-2.551547289E0,-1.891463280E0
2.810719420E-1,7.237585783E-1,-2.162500620E0,-1.446337700E0
2.919835110E-1,-2.136257172E0,-1.978955507E0,3.741017342E0
3.014572960E-1,2.698071003E0,-1.768305540E0,7.698059082E-2
3.112671880E-1,8.649356365E-1,-2.340738297E0,3.696041107E-1
3.210921340E-1,-3.537896872E-1,-1.672651291E0,-8.907775879E-1
3.310411070E-1,-3.861455917E-1,-1.302228212E0,-1.591834545E0
3.409665940E-1,-4.285422564E-1,-1.620608330E0,-1.157857418E0
3.509773370E-1,-8.171690702E-1,-1.308543682E0,-4.907903671E-1
3.621072090E-1,-1.951403856E0,-1.008946896E0,8.032608032E-2
3.715441450E-1,-3.099117756E0,4.435729980E-2,-9.162330627E-2
3.812416130E-1,-3.433539391E0,8.194985390E-1,-5.411500931E-1
3.910843470E-1,-3.505383492E0,1.272056103E0,-6.300287247E-1
4.010052140E-1,-3.625947714E0,1.222477436E0,-7.592072487E-1
4.115326470E-1,-3.946495056E0,1.065279961E0,-1.166529179E0
4.212133640E-1,-3.625128031E0,1.128641129E0,-1.272893429E0
4.311687220E-1,-3.160950184E0,7.623004913E-1,-1.313068867E0
4.410354010E-1,-2.996965170E0,8.872213364E-1,-1.472373486E0
4.509912410E-1,-2.742365837E0,9.755387306E-1,-1.474852562E0
4.609561610E-1,-2.577262402E0,9.159493446E-1,-1.176406384E0
4.709991210E-1,-2.467049360E0,7.805500031E-1,-8.887510300E-1
4.812871010E-1,-2.332561731E0,6.204442978E-1,-8.988394737E-1
4.911455910E-1,-2.278919458E0,6.482825279E-1,-7.627592087E-1
5.010533360E-1,-2.415538311E0,7.530708313E-1,-5.622682571E-1
5.109937080E-1,-2.569569588E0,8.259735107E-1,-1.306886673E-1
5.209978940E-1,-2.782369137E0,1.060528278E0,6.759099960E-1
5.312989870E-1,-2.707513094E0,1.013610363E0,3.761396408E-1
5.411055340E-1,-2.531462669E0,9.393463135E-1,-1.922283173E-1
5.511043070E-1,-2.298666716E0,9.574341774E-1,-1.883888245E-1
5.610191940E-1,-2.161806345E0,8.920245171E-1,-1.306152344E-2
5.709681370E-1,-2.119167566E0,8.035054207E-1,-1.493244171E-1
5.811391090E-1,-1.981622577E0,7.924733162E-1,-6.395759583E-1
5.911140950E-1,-1.668406487E0,9.562668800E-1,-8.382205963E-1
6.010265880E-1,-1.879877090E0,1.196444988E0,-7.163476944E-1
6.111843340E-1,-3.691033125E0,1.785051823E0,-2.355365753E-1
6.210512070E-1,-3.592583656E0,1.804029465E0,-2.629222870E-1
6.310816440E-1,-3.556381941E0,8.161945343E-1,9.553775787E-1
6.410223620E-1,-3.603084326E0,1.209660053E0,8.031396866E-1
6.510692210E-1,-3.257920265E0,1.554604053E0,9.553174973E-1
6.625936510E-1,-2.681812286E0,1.557366133E0,1.589080811E0
6.717488660E-1,-2.108485699E0,1.452899456E0,1.842464447E0
6.813284730E-1,-1.641414881E0,1.454607248E0,1.761818886E0
6.913592770E-1,-1.496144056E0,1.604963779E0,1.480287552E0
7.011356790E-1,-1.679309130E0,1.782247066E0,1.053554535E0
7.111848800E-1,-1.994443297E0,1.906542778E0,5.565519333E-1
7.211614800E-1,-2.341174841E0,1.994522095E0,1.361160278E-1
7.310302800E-1,-2.720593214E0,2.146341801E0,-2.423334122E-1
7.448891800E-1,-2.920594215E0,2.349658012E0,-2.765340805E-1
7.615440810E-1,-2.618972301E0,2.112115383E0,-2.810811996E-1
7.709230810E-1,-2.136540651E0,1.526732922E0,5.054140091E-1
7.809250810E-1,-1.374723911E0,1.018943310E0,1.467821121E0
7.909050810E-1,-5.590656996E-1,7.402477264E-1,2.840301514E0
8.009000810E-1,-4.959590733E-1,3.685350418E-1,4.089191437E0
8.109480810E-1,-7.071213126E-1,-1.877651215E-1,4.925089836E0
8.211890810E-1,-8.778834939E-1,-5.837914944E-1,5.049494743E0
8.314390810E-1,-1.053423047E0,-1.282696724E0,4.635871887E0
8.411790810E-1,-1.433991432E0,-1.935596943E0,3.944872856E0
8.509740810E-1,-2.318947077E0,-1.952029109E0,3.013489723E0
8.609190810E-1,-3.236131668E0,-1.555643797E0,2.090170860E0
8.712330810E-1,-3.575260162E0,-1.336982250E0,1.380919456E0
8.813390810E-1,-3.312989235E0,-1.370874882E0,1.013637543E0
8.909200810E-1,-2.852728128E0,-1.355879068E0,6.097602844E-1
9.015780810E-1,-2.338571548E0,-1.315382481E0,1.715192795E-1
9.109110810E-1,-1.873360395E0,-1.264187813E0,-1.531724930E-1
9.209960810E-1,-1.513085127E0,-1.243993521E0,-3.459043503E-1
9.313120810E-1,-1.237581015E0,-1.338521719E0,-5.759544373E-1
9.408950810E-1,-1.132296085E0,-1.453860044E0,-8.051767349E-1
9.522060810E-1,-1.254329324E0,-1.490017891E0,-1.081788540E0
9.609980810E-1,-1.486963034E0,-1.427933693E0,-1.295735359E0
9.708940810E-1,-1.653975010E0,-1.451406956E0,-1.262055874E0
9.814370810E-1,-1.658186793E0,-1.564799070E0,-9.211621284E-1
9.908970810E-1,-1.574842453E0,-1.672451735E0,-4.843263626E-1
1.001406081E0,-1.462506533E0,-1.670008898E0,-1.006889343E-2
1.011018081E0,-1.265653372E0,-1.633240223E0,4.754705429E-1
1.020947081E0,-1.077828169E0,-1.572273970E0,6.389780045E-1
1.030897081E0,-9.757376909E-1,-1.560877323E0,5.921812057E-1
1.040941081E0,-9.880957603E-1,-1.570397854E0,5.549945831E-1
1.051507081E0,-1.183528543E0,-1.476567745E0,4.428548813E-1
1.060926081E0,-1.455199957E0,-1.269091368E0,2.424087524E-1
1.071031081E0,-1.637736201E0,-1.096133232E0,1.157474518E-2
1.081571081E0,-1.670164108E0,-9.556078911E-1,-1.873064041E-1
1.090986081E0,-1.604462385E0,-8.608274460E-1,-4.108114243E-1
1.100979081E0,-1.491698265E0,-7.643976212E-1,-6.087379456E-1
1.110926081E0,-1.429151058E0,-6.810030937E-1,-9.517517090E-1
1.121183081E0,-1.342178345E0,-6.109819412E-1,-1.321594715E0
1.131541081E0,-1.220397353E0,-5.436885357E-1,-1.526926517E0
1.140919081E0,-1.106779218E0,-4.511661530E-1,-1.714586735E0
1.150940081E0,-9.692885280E-1,-3.466918468E-1,-2.067644596E0
1.160861081E0,-8.541650176E-1,-2.931680679E-1,-2.405915260E0
1.171008081E0,-8.495889902E-1,-2.165181637E-1,-2.734814644E0
1.182082081E0,-1.233658195E0,-5.881333351E-2,-2.709570885E0
1.190919081E0,-1.507794261E0,1.171605587E-1,-2.676052094E0
1.201585081E0,-1.621960402E0,2.394654751E-1,-2.502002239E0
1.210935081E0,-1.607430339E0,3.149104118E-1,-2.096795559E0
1.220900081E0,-1.548613906E0,3.952462673E-1,-1.730715752E0
1.231214081E0,-1.504336476E0,5.162215233E-1,-1.424710751E0
1.240890081E0,-1.439233184E0,6.120691299E-1,-1.053400040E0
1.251028081E0,-1.418385267E0,6.505601406E-1,-7.407026291E-1
1.260946081E0,-1.480066061E0,6.739008427E-1,-3.819961548E-1
1.271172081E0,-1.558831453E0,7.082231045E-1,-1.216983795E-2
1.280863081E0,-1.625689030E0,7.801635265E-1,3.225631714E-1
1.291083081E0,-1.681290627E0,7.864186764E-1,4.800624847E-1
1.301175081E0,-1.764653444E0,7.627248764E-1,6.309356689E-1
1.310959081E0,-1.851971865E0,7.426767349E-1,7.206592560E-1
1.323534081E0,-2.008996964E0,7.072272301E-1,8.037958145E-1
1.340914081E0,-2.370875835E0,5.392270088E-1,9.336681366E-1
1.350892081E0,-2.669269085E0,4.626259804E-1,8.715829849E-1
1.360891081E0,-3.000005484E0,4.959237576E-1,1.019568443E0
1.370974081E0,-3.291100979E0,4.038178921E-1,1.147468567E0
1.380954081E0,-3.542335033E0,3.267405033E-1,1.270963669E0
1.391004081E0,-3.521481037E0,7.372708321E-1,1.580980301E0
1.401563081E0,-3.414752245E0,7.823655605E-1,1.490412712E0
1.410964081E0,-3.171178341E0,8.864991665E-1,1.557124138E0
1.421147081E0,-2.799561977E0,1.081644058E0,1.838606834E0
1.430961081E0,-2.361734152E0,1.226542473E0,1.966354370E0
1.440896081E0,-1.883687496E0,1.291409969E0,2.202047348E0
1.450881081E0,-1.469126940E0,1.258592844E0,2.584066391E0
1.461321081E0,-1.060474992E0,1.114680767E0,3.039002419E0
1.472655081E0,-7.722178698E-1,7.815952301E-1,3.342572212E0
1.480883081E0,-7.123663425E-1,3.654077053E-1,3.428997993E0
1.490976081E0,-8.471989036E-1,-3.250527382E-2,3.325330734E0
1.501471081E0,-1.042084932E0,-4.017097950E-1,3.001750946E0
1.510915081E0,-1.370334387E0,-7.503674030E-1,2.558806419E0
1.521524081E0,-1.832554936E0,-9.914128780E-1,2.340657234E0
1.531003081E0,-2.256196499E0,-1.175308466E0,2.231056213E0
1.541097081E0,-2.538610458E0,-1.341622591E0,1.738364220E0
1.551061081E0,-2.679691792E0,-1.554586172E0,1.194132805E0
1.561079081E0,-2.665376186E0,-1.819532037E0,7.435693741E-1
1.570945081E0,-2.535122395E0,-2.029718399E0,3.514204025E-1
1.580905081E0,-2.311188698E0,-2.174286366E0,7.546710968E-2
1.591184081E0,-1.924449921E0,-2.256153822E0,-3.034114838E-2
1.600984081E0,-1.504134178E0,-2.309148550E0,-8.822441101E-2
1.611438081E0,-1.111763358E0,-2.330749512E0,-1.011905670E-1
1.622565081E0,-7.639358640E-1,-2.324603319E0,-1.123104095E-1
1.631160081E0,-5.779937506E-1,-2.355525970E0,-2.901477814E-1
1.640898081E0,-5.538638830E-1,-2.300454140E0,-5.544910431E-1
1.650974081E0,-6.244224906E-1,-2.212187290E0,-8.002901077E-1
1.661248081E0,-7.101677656E-1,-2.022155762E0,-1.006502628E0
1.670896081E0,-7.672926188E-1,-1.828289270E0,-1.058231354E0
1.681105081E0,-8.179249167E-1,-1.597859859E0,-9.266872406E-1
1.691103081E0,-8.986827135E-1,-1.351686239E0,-7.843732834E-1
1.701255081E0,-1.017072201E0,-1.121746302E0,-5.513172150E-1
1.710956081E0,-1.119633913E0,-9.850907326E-1,-5.636892319E-1
1.720912081E0,-1.226226568E0,-7.956788540E-1,-9.513063431E-1
1.731172081E0,-1.334858060E0,-6.756448746E-1,-2.626180649E-1
1.741667081E0,-1.451910853E0,-4.853847027E-1,-4.216184616E-1
1.750942081E0,-1.496309280E0,-3.773703575E-1,-7.276134491E-1
1.760947081E0,-1.811095238E0,-2.388522625E-1,-9.491043091E-1
1.770923081E0,-2.013783693E0,5.269169807E-2,-1.654559612E0
1.781478081E0,-2.094841957E0,1.622240543E-1,-2.161167622E0
1.790931081E0,-2.114070892E0,1.996266842E-1,-2.349109173E0
1.801107081E0,-2.078817844E0,3.476705551E-1,-2.388981819E0
1.810907081E0,-1.957515597E0,4.607968330E-1,-2.256841660E0
1.822795081E0,-1.708255887E0,4.133126736E-1,-1.901390076E0
1.830963081E0,-1.485952377E0,1.895122528E-1,-1.781630516E0
1.841025081E0,-1.327189565E0,4.776840210E-1,-1.428353310E0
1.851331081E0,-1.241647005E0,4.669184685E-1,-1.435190201E0
1.862941081E0,-1.277686238E0,4.412660599E-1,-1.733127117E0
1.871067081E0,-1.487114310E0,5.741233826E-1,-1.718881607E0
1.881037081E0,-1.714056969E0,5.409841537E-1,-1.755750656E0
1.890912081E0,-1.888540268E0,4.415740967E-1,-1.750888348E0
1.901210081E0,-1.990353346E0,3.176617622E-1,-1.660995483E0
1.911442081E0,-2.049012899E0,2.625672817E-1,-1.504438877E0
1.920931081E0,-1.975167274E0,2.326323986E-1,-1.191572189E0
1.930906081E0,-1.787457228E0,2.370152473E-1,-7.898778915E-1
1.940925081E0,-1.558543086E0,2.564690113E-1,-3.892526627E-1
1.951014081E0,-1.320111275E0,2.202420235E-1,-9.981250763E-2
1.961512081E0,-1.172066331E0,1.473250389E-1,8.731269836E-2
1.970911081E0,-1.242453933E0,1.452474594E-1,1.436796188E-1
1.981164081E0,-1.423803210E0,2.227084637E-1,1.794967651E-1
1.991059081E0,-1.583044529E0,2.681641579E-1,2.123966217E-1
2.000899081E0,-1.055410862E0,9.939098358E-2,2.363834381E-1
2.010944081E0,-1.116558552E0,1.489233971E-1,6.987953186E-2
2.021120081E0,-1.102722883E0,2.676546574E-1,-1.716127396E-1
2.031404081E0,-9.353257418E-1,3.374824524E-1,-3.403577805E-1
2.040906081E0,-6.945186853E-1,3.380670547E-1,-4.727201462E-1
2.050919081E0,-5.528950691E-1,3.721544743E-1,-5.132026672E-1
2.061140081E0,-5.262532234E-1,4.167101383E-1,-3.559913635E-1
2.073134081E0,-5.440175533E-1,4.191966057E-1,-9.724140167E-2
2.090935081E0,-7.231740952E-1,3.785474300E-1,5.556659698E-1
2.101710081E0,-5.899279118E-1,3.108632565E-1,8.887805939E-1
2.110964081E0,-6.024310589E-1,2.984426022E-1,1.112473488E0
2.121203081E0,-6.800326109E-1,4.072499275E-1,1.217662811E0
2.131621081E0,-7.551597357E-1,5.425403118E-1,1.246608734E0
2.140958081E0,-7.658278942E-1,6.559498310E-1,1.215414047E0
2.151487081E0,-5.254285336E-1,6.148881912E-1,1.249229431E0
2.160925081E0,-3.983366489E-2,4.009153843E-1,1.320658684E0
2.170911081E0,4.254680872E-1,1.243717670E-1,1.592850685E0
2.181100081E0,6.094133854E-1,-2.505612373E-1,2.148158073E0
2.191005081E0,4.159882069E-1,-7.414314747E-1,3.036508560E0
2.201722081E0,8.773279190E-2,-1.348439455E0,3.962658882E0
2.211206081E0,-2.380858660E-1,-2.104334831E0,4.872314453E0
2.221229081E0,-7.710822821E-1,-2.713185787E0,5.196620941E0
2.230977081E0,-1.547527194E0,-3.041925192E0,5.056570053E0
2.241147081E0,-2.275566578E0,-3.182696819E0,3.959435463E0
2.251947081E0,-2.773856163E0,-3.113589287E0,3.348776817E0
2.260922081E0,-2.271620274E0,-3.050403595E0,2.839239120E0
2.271015081E0,-1.395501375E0,-3.073187828E0,2.341064453E0
2.281417081E0,-4.716624022E-1,-3.040571213E0,1.718530655E0
2.291009081E0,2.929338217E-1,-2.955824375E0,1.004164696E0
2.300936081E0,9.734202027E-1,-2.981925488E0,4.169273376E-1
2.311210081E0,1.563364625E0,-3.209171772E0,-2.444076538E-2
2.321001081E0,1.872096300E0,-3.479091644E0,-3.508825302E-1
2.330977081E0,1.718531966E0,-3.612503529E0,-6.238737106E-1
2.340928081E0,1.224951863E0,-3.652620316E0,-8.296308517E-1
2.350923081E0,6.033605933E-1,-3.629092932E0,-9.668626785E-1
2.361805081E0,2.525746822E-2,-3.628328562E0,-1.045122147E0
2.371027081E0,-4.342546463E-1,-3.632808447E0,-1.001826286E0
2.381015081E0,-7.233211994E-1,-3.595247269E0,-8.579864502E-1
2.390959081E0,-8.339017630E-1,-3.537213802E0,-6.406202316E-1
2.401126081E0,-8.114050627E-1,-3.433874607E0,-4.589881897E-1
2.411487081E0,-6.608296633E-1,-3.293206930E0,-3.013811111E-1
2.421027081E0,-4.445739985E-1,-3.138745308E0,-1.802625656E-1
2.430928081E0,-2.555047274E-1,-2.989145517E0,-6.792259216E-2
2.440911081E0,-9.916174412E-2,-2.855705976E0,-1.497774124E-1
2.450878081E0,4.071509838E-2,-2.781488895E0,-3.263187408E-1
2.461319081E0,1.755774021E-1,-2.698362350E0,-5.880260468E-1
2.471033081E0,3.182896376E-1,-2.566155434E0,-8.015966415E-1
2.481008081E0,5.365324020E-1,-2.408263683E0,-8.905096054E-1
2.490956081E0,7.876337767E-1,-2.292697430E0,-9.156169891E-1
2.500982081E0,1.018700838E0,-2.154410362E0,-9.636440277E-1
2.511004081E0,1.217361450E0,-2.009507656E0,-1.042232513E0
2.521033081E0,1.359947562E0,-1.878346086E0,-1.082905769E0
2.531464081E0,1.438885570E0,-1.777394533E0,-1.129300117E0
2.540944081E0,1.437470198E0,-1.704618692E0,-1.141155243E0
2.550934081E0,1.331467390E0,-1.640224576E0,-1.144418716E0
2.560908081E0,1.236539721E0,-1.600534320E0,-1.075026512E0
2.570943081E0,1.137251735E0,-1.634966254E0,-9.851493835E-1
2.580916081E0,1.020598769E0,-1.669889927E0,-8.627929688E-1
2.591057081E0,8.153064847E-1,-1.691650867E0,-7.317104340E-1
2.601045081E0,4.936133623E-1,-1.684613705E0,-6.515779495E-1
2.611000081E0,1.446578503E-1,-1.648781061E0,-6.583328247E-1
2.621190081E0,-1.654011011E-1,-1.594322801E0,-7.444858551E-1
2.631411081E0,-4.156199694E-1,-1.488696933E0,-8.265304565E-1
2.640935081E0,-5.522506237E-1,-1.345801711E0,-8.448066711E-1
2.650956081E0,-5.951128006E-1,-1.218093634E0,-7.840347290E-1
2.661112081E0,-5.896818638E-1,-1.091131330E0,-6.686973572E-1
2.671117081E0,-5.655559301E-1,-1.036291122E0,-4.587430954E-1
2.681172081E0,-4.751852751E-1,-1.073027611E0,-3.801136017E-1
2.690970081E0,-3.335244656E-1,-1.148955941E0,-3.352308273E-1
2.701366081E0,-2.249854803E-1,-1.182165027E0,-3.686847687E-1
2.711030081E0,-2.088023424E-1,-1.204383016E0,-4.366302490E-1
2.720939081E0,-2.977449894E-1,-1.161535859E0,-4.935541153E-1
2.731528081E0,-4.704407454E-1,-1.084434509E0,-5.889034271E-1
2.740937081E0,-6.653922796E-1,-9.947166443E-1,-7.220039368E-1
2.751064081E0,-8.462449312E-1,-8.483662605E-1,-9.031000137E-1
2.760927081E0,-1.037809968E0,-7.758579254E-1,-9.098024368E-1
2.770984081E0,-1.156771302E0,-6.916341782E-1,-7.446765900E-1
2.781925081E0,-1.325065970E0,-7.509908676E-1,-1.123542786E-1
2.792158081E0,-1.446396351E0,-8.008987904E-1,1.006402969E-1
2.800955081E0,-1.542394042E0,-9.577659369E-1,1.455545425E-1
2.810987081E0,-1.644059181E0,-1.091126680E0,-6.903171539E-2
2.821070081E0,-1.793485403E0,-1.119088292E0,-5.254278183E-1
2.831742081E0,-1.892311335E0,-1.102181554E0,-9.395179749E-1
2.840915081E0,-1.932253838E0,-1.112646461E0,-1.511318684E0
2.851115081E0,-1.762432575E0,-1.201162338E0,-2.328788280E0
2.861044081E0,-1.370281935E0,-1.344874978E0,-2.624973774E0
2.870990081E0,-1.133130908E0,-1.239263535E0,-2.722543716E0
2.881384081E0,-7.964138985E-1,-1.014613032E0,-2.940726280E0
2.890932081E0,-3.936110735E-1,-1.109175801E0,-2.908883572E0
2.901002081E0,-2.357872725E-1,-1.187589765E0,-2.651644707E0
2.911773081E0,-3.942999840E-1,-1.043001652E0,-2.043142319E0
2.921094081E0,-6.168440580E-1,-1.019100428E0,-1.305399895E0
2.931750081E0,-1.038487792E0,-9.380848408E-1,-9.588050842E-1
2.940906081E0,-1.718893886E0,-3.827795982E-1,-6.714429855E-1
2.950938081E0,-1.931763291E0,5.409765244E-2,-3.199214935E-1
2.960882081E0,-1.176899195E0,-2.799985409E-1,4.403448105E-1
2.971004081E0,-5.960556269E-1,2.168636322E-1,1.244551659E0
2.980918081E0,2.111862898E-1,1.116119862E0,1.517360687E0
2.991083081E0,1.928922534E0,1.495526314E0,3.599713326E0
3.000970081E0,3.622878075E0,6.939830780E-1,4.573235512E0
3.010916081E0,4.779810905E0,-3.755300045E-1,4.212067604E0
3.021071081E0,5.146296501E0,-1.505628109E0,4.308121681E0
3.030911081E0,4.445631981E0,-2.405409336E0,4.533525467E0
3.041075081E0,2.675236225E0,-2.851814747E0,5.206064224E0
3.051125081E0,4.779264927E-1,-2.662499666E0,5.930588722E0
3.060946081E0,-1.365421057E0,-2.010653496E0,6.310358047E0
3.071705081E0,-2.459445953E0,-1.260546088E0,6.938222885E0
3.080962081E0,-2.834122658E0,-5.407296419E-1,7.410751343E0
3.091428081E0,-2.662559986E0,1.762950420E-1,6.934961319E0
3.100961081E0,-2.092507362E0,8.907306194E-1,6.023786545E0
3.110915081E0,-1.403600931E0,1.419330478E0,5.530201912E0
3.120897081E0,-5.285711288E-1,1.550499678E0,4.874551773E0
3.130895081E0,1.398975849E-1,1.712047100E0,3.423022270E0
3.141027081E0,5.763429403E-1,1.705727100E0,1.435618401E0
3.150880081E0,9.610528946E-1,1.552706480E0,-2.977371216E-3
3.160991081E0,1.173835039E0,1.486342907E0,-1.025022507E0
3.170925081E0,1.118174076E0,1.541010380E0,-1.799782753E0
3.181129081E0,9.421090484E-1,1.472052574E0,-2.340051174E0
3.191085081E0,6.396353245E-1,1.327022314E0,-2.659857273E0
3.200865081E0,2.521175146E-1,1.170647621E0,-2.810330868E0
3.210942081E0,-1.064921618E-1,9.952371120E-1,-2.830506802E0
3.220931081E0,-3.811438084E-1,8.555173874E-1,-2.737035751E0
3.231683081E0,-5.555802584E-1,6.593711376E-1,-2.549630642E0
3.240995081E0,-7.333744764E-1,3.697147369E-1,-2.484727859E0
3.251269081E0,-9.717944860E-1,6.599140167E-2,-2.546649456E0
3.260956081E0,-1.301694989E0,-1.324231625E-1,-2.579296589E0
3.271164081E0,-1.516879439E0,-2.888407707E-1,-2.459022999E0
3.281782081E0,-1.396131039E0,-6.300662756E-1,-2.187942982E0
3.291039081E0,-1.410993695E0,-6.705409288E-1,-2.179929256E0
3.301089081E0,-1.235340476E0,-8.106944561E-1,-2.242865562E0
3.310960081E0,-1.010588527E0,-8.883852959E-1,-2.393174648E0
3.321023081E0,-4.401508570E-1,-9.437818527E-1,-2.569252968E0
3.331529081E0,-1.372971535E-1,-1.052672148E0,-2.590365410E0
3.340905081E0,1.381777525E-1,-1.201674819E0,-2.580883026E0
3.350976081E0,2.163475752E-1,-1.290327430E0,-2.455791950E0
3.361036081E0,1.540675163E-1,-1.356240153E0,-2.231463909E0
3.370947081E0,8.343851566E-2,-1.437643051E0,-1.936977386E0
3.381409081E0,-6.859064102E-3,-1.624255538E0,-1.489356518E0
3.391212081E0,-3.269410133E-2,-1.736512780E0,-8.511552811E-1
3.400914081E0,9.045243263E-2,-1.861828089E0,-1.860408783E-1
3.410978081E0,2.880495787E-1,-1.992796302E0,4.048995972E-1
3.420891081E0,4.779438972E-1,-2.111513138E0,7.450399399E-1
3.431210081E0,6.224801540E-1,-2.174537897E0,8.993949890E-1
3.440952081E0,6.552703381E-1,-2.047262669E0,8.707027435E-1
3.450884081E0,5.993596315E-1,-1.710834742E0,7.130413055E-1
3.460958081E0,4.377936125E-1,-1.253638148E0,5.014886856E-1
3.470949081E0,2.189429998E-1,-1.105118871E0,4.177570343E-1
3.480913081E0,7.564175129E-2,-1.044914961E0,4.949569702E-1
3.490917081E0,1.142543554E-1,-1.042442560E0,8.671588898E-1
3.501027081E0,5.120272636E-1,-1.089306593E0,1.438621521E0
3.510979081E0,1.069486737E0,-1.213154912E0,1.974749565E0
3.520984081E0,1.560967922E0,-1.310718536E0,2.572899818E0
3.531278081E0,1.684479475E0,-1.279606104E0,3.228969574E0
3.541044081E0,1.534004211E0,-1.322264314E0,3.872155190E0
3.551606081E0,1.064223647E0,-1.456764698E0,4.341282845E0
3.561114081E0,1.745683551E-1,-1.425794005E0,4.326206207E0
3.570957081E0,-8.424629569E-1,-1.248856544E0,3.894173622E0
3.580916081E0,-1.551843524E0,-1.048553348E0,3.229481697E0
3.590955081E0,-1.907553673E0,-7.023192644E-1,2.586779594E0
3.601841081E0,-1.949129462E0,-2.883076668E-1,2.131807327E0
3.610964081E0,-1.720170021E0,5.918121338E-2,1.828185081E0
3.621058081E0,-1.358431578E0,3.103141785E-1,1.457455635E0
3.630891081E0,-1.040414214E0,4.873628616E-1,8.897256851E-1
3.641088081E0,-8.258061409E-1,6.390111446E-1,2.542943954E-1
3.650919081E0,-7.152628899E-1,7.302777767E-1,-3.341197968E-1
3.660897081E0,-6.763653755E-1,8.127634525E-1,-7.277469635E-1
3.671560081E0,-6.438263655E-1,9.271538258E-1,-9.097175598E-1
3.681013081E0,-5.870397091E-1,1.010799885E0,-9.417390823E-1
3.690910081E0,-5.697301626E-1,9.924764633E-1,-8.141002655E-1
3.700962081E0,-6.146857738E-1,9.593021870E-1,-6.534004211E-1
3.710895081E0,-5.920593739E-1,9.088194370E-1,-4.707727432E-1
3.721144081E0,-5.483366251E-1,8.389086723E-1,-1.736917496E-1
3.731372081E0,-2.713947296E-1,5.899682045E-1,2.223777771E-1
3.740933081E0,-1.514937878E-1,5.656075478E-1,4.844131470E-1
3.750963081E0,2.849805355E-2,5.393259525E-1,5.747909546E-1
3.761058081E0,1.490691900E-1,4.795734882E-1,7.820291519E-1
3.771045081E0,2.584549189E-1,4.116263390E-1,7.615518570E-1
3.780917081E0,3.167027235E-1,3.753235340E-1,5.460271835E-1
3.790945081E0,3.348153234E-1,3.292124271E-1,1.538753510E-1
3.800883081E0,3.176512718E-1,2.850914001E-1,-4.270715714E-1
3.810983081E0,2.603881359E-1,2.586400509E-1,-7.835187912E-1
3.821008081E0,2.375979424E-1,1.536750793E-1,-1.129975319E0
3.830993081E0,2.741202116E-1,-2.289056778E-3,-1.502469540E0
3.840969081E0,3.255361319E-1,-1.794447899E-1,-1.908899307E0
3.851012081E0,4.311809540E-1,-3.973302841E-1,-2.286775112E0
3.861050081E0,5.893552303E-1,-7.157133818E-1,-2.993478298E0
3.870973081E0,6.924516559E-1,-8.402875662E-1,-3.200160503E0
3.881411081E0,8.968251944E-1,-1.003157616E0,-3.392839909E0
3.890953081E0,1.200540781E0,-1.096487284E0,-3.454183578E0
3.901068081E0,1.540495157E0,-1.181157112E0,-3.214640141E0
3.910980081E0,1.885743022E0,-1.207309484E0,-2.790529251E0
3.920984081E0,2.169408083E0,-1.303567290E0,-2.245843410E0
3.931034081E0,2.205522299E0,-1.413078666E0,-1.490833759E0
3.941064081E0,1.888077378E0,-1.383879423E0,-7.132282257E-1
3.951703081E0,1.268217802E0,-1.235581279E0,-8.196735382E-2
3.960931081E0,5.866963863E-1,-1.164876223E0,5.745878220E-1
3.971021081E0,6.106734276E-3,-1.058035731E0,8.596563339E-1
3.981072081E0,-5.104393959E-1,-8.268516064E-1,7.235021591E-1
3.990997081E0,-9.544880390E-1,-4.773576260E-1,3.059053421E-1
4.001139081E0,-1.119695783E0,-1.194233894E-1,-4.149541855E-1
4.011101081E0,-5.860011578E-1,-3.740787506E-2,-1.044260025E0
4.021160081E0,6.365077496E-1,-2.407505512E-1,-7.720880508E-1
4.030967081E0,1.800558925E0,1.570296288E-2,2.396793365E-1
4.040939081E0,2.580891609E0,5.986037254E-1,1.382515907E0
4.050979081E0,2.873105049E0,7.616271973E-1,3.670454025E0
4.060998081E0,2.887835979E0,1.372330189E-1,6.922369003E0
4.071484081E0,2.324861526E0,-9.484374523E-1,8.921510696E0
4.081092081E0,8.494451046E-1,-1.491515517E0,8.699466705E0
4.090964081E0,-1.283093214E0,-1.113103151E0,7.020422935E0
4.101372081E0,-3.180490494E0,-2.390706539E-1,5.073989868E0
4.110939081E0,-4.083500862E0,5.638279915E-1,3.740571976E0
4.120925081E0,-3.666507006E0,8.378884792E-1,3.012639046E0
4.130899081E0,-2.483074188E0,1.161171675E0,2.578584671E0
4.141162081E0,-1.105287075E0,1.657735109E0,1.954696655E0
4.150905081E0,1.518735886E-1,2.082924604E0,1.215954781E0
4.160920081E0,1.077243090E0,2.271072626E0,2.167158127E-1
4.171463081E0,1.580359340E0,2.188209295E0,-1.037388802E0
4.181026081E0,1.668850780E0,1.970875025E0,-2.178417206E0
4.190923081E0,1.493108273E0,1.739161491E0,-2.950711727E0
4.200915081E0,1.160061479E0,1.547321081E0,-3.352181911E0
4.210912081E0,8.085567951E-1,1.389583826E0,-3.415513515E0
4.220943081E0,5.182573199E-1,1.246798038E0,-3.271284103E0
4.231069081E0,2.645149231E-1,1.179718733E0,-2.956938267E0
4.240917081E0,1.020578146E-1,1.101467133E0,-2.667593956E0
4.250875081E0,9.462881088E-2,1.113825798E0,-2.536261082E0
4.261607081E0,2.422144413E-1,1.101396322E0,-2.567810535E0
4.270997081E0,4.848107100E-1,1.092699766E0,-2.520677567E0
4.281036081E0,7.074072361E-1,1.031402588E0,-2.269178391E0
4.291230081E0,8.820021749E-1,9.260056019E-1,-2.085922718E0
4.300934081E0,9.821850657E-1,7.792065144E-1,-2.077022552E0
4.311434081E0,1.063535571E0,5.223059654E-1,-2.186873913E0
4.320977081E0,9.956622720E-1,2.235884666E-1,-2.285475254E0
4.330900081E0,7.984234095E-1,-7.036614418E-2,-2.360309601E0
4.340942081E0,6.693176031E-1,-3.052277565E-1,-2.411118984E0
4.350917081E0,7.445936203E-1,-5.122940540E-1,-2.250565529E0
4.361036081E0,1.108649254E0,-8.239371777E-1,-1.923504353E0
4.371019081E0,1.525436163E0,-1.072216630E0,-1.416174889E0
4.381119081E0,1.777321815E0,-1.256391287E0,-4.102687836E-1
4.390915081E0,1.764258265E0,-1.549836159E0,-3.726005554E-3
4.401112081E0,1.052068949E0,-2.012895107E0,4.095354080E-1
4.410974081E0,5.971306562E-1,-2.181719780E0,9.398679733E-1
4.421024081E0,2.503265142E-1,-2.321374893E0,1.544910431E0
4.430907081E0,8.687484264E-2,-2.400581837E0,1.984411240E0
4.441021081E0,1.677495241E-1,-2.484420300E0,2.401674271E0
4.451643081E0,5.529989004E-1,-2.641450405E0,3.164957047E0
4.460926081E0,1.017923594E0,-2.747004509E0,4.104788780E0
4.470917081E0,1.253647804E0,-2.693290472E0,5.398468971E0
4.480868081E0,1.426695108E0,-2.694458246E0,6.820067406E0
4.490891081E0,1.463411093E0,-2.957519770E0,7.869857788E0
4.500878081E0,1.172705889E0,-3.123074770E0,7.777314186E0
4.510929081E0,2.825869322E-1,-2.889480829E0,6.698544502E0
4.521107081E0,-7.584041357E-1,-2.373552322E0,4.950689316E0
4.530919081E0,-1.605612755E0,-1.727497339E0,3.192375183E0
4.540997081E0,-1.900846004E0,-1.064135551E0,2.009844780E0
4.550972081E0,-1.892466068E0,-4.703736305E-1,1.260459900E0
4.560901081E0,-1.114105701E0,1.002035141E-1,6.438035965E-1
4.571039081E0,-1.802818775E-1,5.400350094E-1,7.568168640E-2
4.580953081E0,8.163857460E-1,8.591792583E-1,-4.742145538E-1
4.591854081E0,1.677383780E0,1.098862886E0,-9.174509048E-1
4.600936081E0,2.196866274E0,1.231789589E0,-1.322085857E0
4.611371081E0,2.414281845E0,1.273140907E0,-1.613375187E0
4.620935081E0,2.561648607E0,1.308934212E0,-1.953891277E0
4.630940081E0,2.318869352E0,1.096405983E0,-1.786980152E0
4.640906081E0,1.860510230E0,9.468033314E-1,-1.313481808E0
4.650905081E0,1.412308931E0,8.401165009E-1,-7.701969147E-1
4.660935081E0,8.807264566E-1,7.081673145E-1,7.650566101E-2
4.670963081E0,3.755822182E-1,6.225297451E-1,9.337911606E-1
4.680975081E0,-1.197338104E-3,6.003334522E-1,1.539237976E0
4.690931081E0,-1.525645256E-1,4.828964472E-1,1.951424599E0
4.700956081E0,-1.769002676E-1,3.334095478E-1,1.989752769E0
4.711207081E0,-1.347110271E-1,2.945808172E-1,1.731684685E0
4.720881081E0,3.131115437E-2,3.041908741E-1,1.073000908E0
4.731136081E0,2.130440474E-1,2.458002567E-1,6.654462814E-1
4.741074081E0,3.648623228E-1,2.326622009E-1,1.597347260E-1
4.750925081E0,5.621882677E-1,1.337420940E-1,-4.306898117E-1
4.760939081E0,7.978215218E-1,-4.203927517E-2,-1.387732506E0
4.770911081E0,1.066360593E0,-4.100590944E-1,-2.063593864E0
4.780986081E0,1.312402606E0,-7.434084415E-1,-2.551992893E0
4.790942081E0,1.383490086E0,-8.945902586E-1,-2.897720337E0
4.803456081E0,1.419842005E0,-9.968234301E-1,-2.975256920E0
4.820863081E0,1.437273026E0,-1.381119013E0,-2.718156815E0
4.830909081E0,1.454836369E0,-1.573085785E0,-2.623653889E0
4.840895081E0,1.455080986E0,-1.696943045E0,-2.463371277E0
4.851387081E0,1.584059238E0,-1.820105553E0,-2.104807854E0
4.860988081E0,1.621030569E0,-1.855483770E0,-1.729700565E0
4.870909081E0,1.431319952E0,-1.717865944E0,-1.534202576E0
4.882014081E0,7.571163177E-1,-1.272192001E0,-9.470577240E-1
4.890907081E0,8.287577629E-1,-1.332542181E0,-9.128932953E-1
4.901069081E0,4.256968498E-1,-1.089265108E0,-6.909561157E-1
4.910912081E0,-6.403207779E-3,-7.833102942E-1,-4.834527969E-1
4.920880081E0,-3.897297382E-1,-2.657175064E-1,-2.358541489E-1
4.930869081E0,-1.010799408E-1,7.170782089E-1,-5.775251389E-1
4.940879081E0,1.289339662E0,3.827776909E-1,-6.624593735E-1
4.951295081E0,2.975175142E0,9.168601036E-2,-3.630304337E-1
4.961031081E0,3.884838820E0,3.349590302E-1,5.759048462E-2
4.971027081E0,4.058690548E0,5.671763420E-1,7.469663620E-1
4.980895081E0,3.647202015E0,2.162876129E-1,2.804723740E0
4.990981081E0,2.873851776E0,-6.247239113E-1,5.509757042E0
5.001824081E0,1.447576165E0,-1.388845682E0,6.912482262E0
5.010954081E0,-6.368111372E-1,-1.407647848E0,6.807859421E0
5.021269081E0,-2.742853642E0,-8.534462452E-1,5.681752205E0
5.031243081E0,-4.163438797E0,-1.995809078E-1,4.761240959E0
5.040923081E0,-4.502892494E0,4.039230347E-1,4.362285614E0
5.050890081E0,-3.841861010E0,8.849096298E-1,4.447321892E0
5.061014081E0,-2.473918676E0,1.438818455E0,4.499040604E0
5.076579081E0,-8.034322262E-1,2.064849854E0,4.030200005E0
5.090935081E0,1.655282259E0,2.368806601E0,2.478284836E0
5.101191081E0,2.125377893E0,2.291742325E0,1.304487228E0
5.110980081E0,2.122171640E0,2.081568718E0,6.279277802E-1
5.121115081E0,1.708810806E0,2.013877869E0,-7.203102112E-2
5.130955081E0,1.261787653E0,2.048170567E0,-7.172288895E-1
5.141083081E0,8.623555899E-1,1.955188990E0,-8.569641113E-1
5.152007081E0,5.155882835E-1,1.849527240E0,-7.312536240E-1
5.161184081E0,2.332351208E-1,1.767549276E0,-7.542371750E-1
5.171071081E0,2.910208702E-2,1.664313078E0,-9.099903107E-1
5.181201081E0,-1.246621609E-1,1.558557034E0,-1.177483559E0
5.192213081E0,-2.128050327E-1,1.462798715E0,-1.511467934E0
5.200912081E0,-1.986007690E-1,1.412602901E0,-1.782581329E0
5.211986081E0,-6.696391106E-2,1.321961641E0,-2.094668388E0
5.221079081E0,1.843414307E-1,1.161386967E0,-2.434259892E0
5.230952081E0,4.842023849E-1,9.709193707E-1,-2.747919559E0
5.242999081E0,7.684223652E-1,7.312099934E-1,-2.885396481E0
5.251034081E0,9.940061569E-1,4.552735090E-1,-2.894439697E0
5.260918081E0,1.192412376E0,2.532083988E-1,-2.880772114E0
5.271994081E0,1.311635375E0,6.250000000E-2,-2.849604130E0
5.280929081E0,1.342960000E0,-1.823084354E-1,-2.721662045E0
5.290939081E0,1.306232572E0,-4.508597851E-1,-2.477668762E0
5.301026081E0,1.202344418E0,-7.303736210E-1,-2.117341995E0
5.310970081E0,1.063535333E0,-1.055642366E0,-1.570224285E0
5.325797081E0,1.819827557E-1,-1.388533592E0,-5.736169815E-1
5.340915081E0,-2.401685715E-2,-1.702617645E0,-2.636795044E-1
5.351166081E0,-6.751799583E-2,-1.970078111E0,-3.895092010E-2
5.360926081E0,-5.828332901E-2,-2.044934273E0,8.606529236E-2
5.370993081E0,1.059217453E-1,-2.008315563E0,2.928514481E-1
5.381159081E0,4.282488823E-1,-2.002980709E0,6.503887177E-1
5.390921081E0,8.640780449E-1,-2.013381243E0,1.032254219E0
5.401610081E0,1.284008741E0,-2.010104179E0,1.240392685E0
5.410993081E0,1.701499939E0,-2.040820599E0,1.370971680E0
5.421051081E0,2.074430227E0,-2.129859924E0,1.505432129E0
5.430945081E0,2.278233528E0,-2.088278770E0,1.922922134E0
5.440885081E0,2.394641161E0,-2.059606075E0,2.932399750E0
5.450932081E0,2.439635277E0,-2.186687946E0,4.228103638E0
5.460981081E0,2.278069496E0,-2.525904417E0,5.513713837E0
5.471228081E0,3.420404196E-1,-2.705587387E0,5.066075325E0
5.480870081E0,-9.008274078E-1,-2.324582815E0,3.904155731E0
5.490940081E0,-1.705494165E0,-1.903499842E0,2.650694847E0
5.500863081E0,-1.983074665E0,-1.409477115E0,1.338252068E0
5.510920081E0,-1.816143990E0,-9.727492332E-1,7.562446594E-2
5.523783081E0,-1.383381128E0,-5.466059446E-1,-1.090680122E0
5.541364081E0,-4.193353653E-1,2.418808937E-1,-2.923018456E0
5.550926081E0,7.275843620E-2,5.295801163E-1,-3.361693859E0
5.561693081E0,5.759251118E-1,8.105158806E-1,-3.360751152E0
5.574555081E0,1.231282115E0,8.379690647E-1,-3.109614849E0
5.590930081E0,2.299026251E0,4.584035873E-1,-1.808449268E0
5.600953081E0,2.500556946E0,2.015733719E-1,-9.532222748E-1
5.611077081E0,2.516735554E0,1.288795471E-2,1.547040939E-1
5.620897081E0,2.308551788E0,-1.387119293E-2,1.547694206E0
5.630891081E0,2.043193340E0,-4.727125168E-3,2.638064384E0
5.641986081E0,1.789404392E0,-1.125329733E-1,2.922707558E0
5.650967081E0,1.325952888E0,-1.907224655E-1,2.409012794E0
5.661232081E0,6.327065229E-1,-2.520787716E-2,2.001578331E0
5.670966081E0,9.251511097E-2,2.072221041E-1,1.436387062E0
5.680870081E0,-5.969166756E-2,4.113289118E-1,7.323493958E-1
5.690988081E0,6.670439243E-2,5.141311884E-1,6.949138641E-2
5.700946081E0,2.780613899E-1,5.685819387E-1,-5.821552277E-1
5.711353081E0,4.736317396E-1,5.492154360E-1,-1.197059631E0
5.720999081E0,5.760779381E-1,3.353538513E-1,-1.853432655E0
5.730896081E0,7.254873514E-1,4.258668423E-2,-2.167706013E0
5.741066081E0,6.904418468E-1,-1.844187975E-1,-2.291075706E0
5.750906081E0,5.397025347E-1,-2.399096489E-1,-2.366661072E0
5.761298081E0,4.815014601E-1,-4.078749418E-1,-2.185950279E0
5.770987081E0,5.416334867E-1,-6.971577406E-1,-1.922874451E0
5.781024081E0,5.371321440E-1,-8.392509818E-1,-1.749277592E0
5.790979081E0,4.494506121E-1,-8.728244901E-1,-1.439507961E0
5.800871081E0,4.376802444E-1,-9.899828434E-1,-8.812999725E-1
5.810936081E0,2.919446230E-1,-9.706243873E-1,-2.246303558E-1
5.821176081E0,6.109523773E-2,-8.250833750E-1,1.915340424E-1
5.832080081E0,-2.264940739E-1,-6.091167927E-1,3.060731888E-1
5.840946081E0,-5.481977463E-1,-3.987348080E-1,7.248973846E-2
5.850907081E0,-9.156684875E-1,-4.205608368E-2,-4.264783859E-1
5.861027081E0,-1.130160570E0,5.027387142E-1,-6.827526093E-1
5.871000081E0,-9.836935997E-1,1.054417849E0,-5.276269913E-1
5.880918081E0,-1.394915581E-1,1.104822874E0,-5.688638687E-1
5.890918081E0,1.249006033E0,9.958367348E-1,-3.419113159E-2
5.901502081E0,2.610759735E0,1.230871439E0,1.084201813E0
5.910935081E0,3.670028210E0,1.649092913E0,2.476553917E0
5.920906081E0,4.439739704E0,1.485959291E0,4.493103027E0
5.930940081E0,4.532959461E0,8.507041931E-1,7.251126289E0
5.940905081E0,3.856750965E0,1.196680069E-1,9.133937836E0
5.951508081E0,2.454054356E0,-3.476158381E-1,1.025950432E1
5.960907081E0,8.325307369E-1,-1.112415791E-1,9.563060760E0
5.970928081E0,-6.382267475E-1,6.771904230E-1,7.812630653E0
5.980906081E0,-1.365866303E0,1.368143797E0,5.895899773E0
5.990935081E0,-1.268885493E0,1.789705157E0,3.645277977E0
6.001388081E0,2.316223383E-1,1.556167126E0,7.863044739E-1
6.010902081E0,1.190778732E0,1.444026709E0,-7.796773911E-1
6.021372081E0,1.007969499E0,2.803884268E0,-2.032345772E0
6.031008081E0,9.702405334E-1,2.556624889E0,-3.417124271E0
6.040901081E0,1.747185111E0,1.943929672E0,-3.813288689E0
6.050884081E0,1.735309839E0,1.975666046E0,-4.482408047E0
6.061234081E0,1.564349532E0,2.058910370E0,-4.921733379E0
6.071326081E0,1.451580763E0,1.876209736E0,-5.128913403E0
6.081023081E0,1.315335751E0,1.582441092E0,-5.052567005E0
6.090926081E0,1.137421608E0,1.413732767E0,-4.779988289E0
6.100944081E0,8.213661909E-1,1.190520048E0,-4.175738335E0
6.110945081E0,5.192027688E-1,9.917869568E-1,-3.617351532E0
6.121798081E0,1.823397875E-1,8.417568207E-1,-3.144808769E0
6.130912081E0,-4.247331619E-2,5.659050941E-1,-2.673133373E0
6.141123081E0,-1.957035065E-1,2.121551037E-1,-2.294835091E0
6.150903081E0,-2.816977501E-1,-7.816863060E-2,-2.026801109E0
6.161180081E0,-3.786236048E-1,-2.794568539E-1,-1.837794304E0
6.170937081E0,-4.946641922E-1,-3.924248219E-1,-1.957247257E0
6.181028081E0,-4.582511187E-1,-5.830948353E-1,-2.290891647E0
6.191943081E0,-3.011229038E-1,-8.378789425E-1,-2.419955730E0
6.201046081E0,-1.637988091E-1,-1.115153313E0,-2.425849438E0
6.210934081E0,-6.750547886E-2,-1.336452603E0,-2.446951389E0
6.221068081E0,4.992222786E-2,-1.516176701E0,-2.319183826E0
6.230949081E0,1.634527445E-1,-1.736418128E0,-1.976956844E0
6.240891081E0,2.324564457E-1,-1.906935215E0,-1.525839329E0
6.250871081E0,2.699928284E-1,-1.947693110E0,-1.122721672E0
6.260953081E0,3.581509590E-1,-2.002760172E0,-7.498874664E-1
6.270933081E0,5.142486095E-1,-2.039037704E0,-2.785291672E-1
6.281003081E0,7.798308730E-1,-2.055625916E0,1.907119751E-1
6.290946081E0,1.242301583E0,-2.200273991E0,6.199159622E-1
6.301117081E0,1.779560208E0,-2.404562235E0,1.136643410E0
6.310953081E0,2.140574932E0,-2.564076900E0,1.694988251E0
6.321001081E0,2.241106510E0,-2.601181507E0,2.715946198E0
6.330980081E0,2.342481136E0,-2.696314573E0,4.448215485E0
6.340925081E0,2.459672451E0,-3.042564869E0,6.161858559E0
6.350896081E0,2.446790934E0,-3.386191607E0,7.129803658E0
6.361060081E0,1.917126417E0,-3.452725410E0,7.312720299E0
6.371325081E0,9.713016152E-1,-3.020875692E0,7.006160736E0
6.380964081E0,-9.053838253E-2,-2.287529230E0,6.259943008E0
6.391209081E0,-8.912692070E-1,-1.737356782E0,5.063529968E0
6.401028081E0,-1.229864597E0,-1.383898854E0,4.164023399E0
6.410925081E0,-1.391162276E0,-8.203373551E-1,3.304338455E0
6.421123081E0,-1.347659826E0,-1.761236191E-1,2.226211548E0
6.430974081E0,-8.370071650E-1,2.688401937E-1,1.209857941E0
6.441004081E0,-1.739250422E-1,5.923582315E-1,3.325653076E-1
6.450885081E0,4.874643087E-1,9.018062353E-1,-3.327856064E-1
6.460953081E0,1.083385706E0,1.269265532E0,-1.043700218E0
6.471043081E0,1.679355502E0,1.647054672E0,-1.769061089E0
6.480908081E0,2.277373552E0,1.859596729E0,-2.264922142E0
6.491497081E0,2.882690430E0,2.039772511E0,-2.642627239E0
6.500857081E0,3.188951015E0,1.912941098E0,-2.442358494E0
6.511022081E0,3.142933846E0,1.804238915E0,-2.303173542E0
6.520909081E0,2.681761265E0,1.648630500E0,-1.620357037E0
6.530917081E0,2.112052202E0,1.477073550E0,-2.508449554E-1
6.541347081E0,7.083367705E-1,1.030409932E0,4.073143005E-1
6.550932081E0,-1.336538792E-2,9.824714661E-1,3.280467987E-1
6.561047081E0,-4.066050053E-1,9.017066956E-1,-5.047702789E-2
6.571267081E0,-5.377817154E-1,7.042925358E-1,1.310281754E-1
6.580893081E0,-5.834258795E-1,6.277978420E-1,1.504316330E-1
6.590936081E0,-4.078077078E-1,6.486518383E-1,-5.610656738E-2
6.600912081E0,-2.253700495E-1,6.534850597E-1,-5.842857361E-1
6.611515081E0,4.634320736E-2,6.047201157E-1,-1.170058250E0
6.620902081E0,2.609580755E-1,4.523707628E-1,-1.500375748E0
6.630931081E0,3.723286390E-1,2.203571796E-1,-1.657860756E0
6.640928081E0,3.176593781E-1,-5.714273453E-2,-1.698299408E0
6.650872081E0,1.148034334E-1,-1.875728369E-1,-1.754909992E0
6.661960081E0,-3.365242481E-2,-4.369664192E-1,-1.728392124E0
6.674783081E0,-5.223536491E-2,-7.243645191E-1,-1.572927475E0
6.691044081E0,-1.337199211E-1,-8.269065022E-1,-1.099552155E0
6.700977081E0,-2.232682705E-2,-8.318322301E-1,-6.898326874E-1
6.710992081E0,9.296369553E-2,-8.288081884E-1,-3.047924042E-1
6.721068081E0,1.775209904E-1,-7.673285007E-1,-2.015066147E-1
6.731784081E0,7.941710949E-2,-7.173685431E-1,-3.811101913E-1
6.741041081E0,-9.622907639E-2,-6.269913912E-1,-5.824460983E-1
6.750904081E0,-2.705447674E-1,-4.627145529E-1,-6.836481094E-1
6.760952081E0,-4.674762487E-1,-8.508646488E-2,-8.459615707E-1
6.770963081E0,-5.813114643E-1,4.530354738E-1,-1.095445633E0
6.781003081E0,4.259800911E-2,7.204989195E-1,-1.432105541E0
6.791026081E0,1.483773708E0,5.501663685E-1,-1.025666237E0
6.801088081E0,2.720217943E0,1.001187205E0,1.654453278E-1
6.811015081E0,3.658544540E0,1.521399498E0,1.651282310E0
6.820910081E0,4.213539600E0,1.265736222E0,3.764472961E0
6.830878081E0,3.991526127E0,6.688838005E-1,5.961306572E0
6.841001081E0,2.954246044E0,1.522208452E-1,8.379762650E0
6.851506081E0,1.339085221E0,1.760664582E-1,9.978541374E0
6.860916081E0,-3.610508442E-1,3.912827969E-1,9.915084839E0
6.871103081E0,-1.959225893E0,1.054705739E0,8.394315720E0
6.880927081E0,-2.885394573E0,1.858607531E0,6.797992706E0
6.890956081E0,-2.708213568E0,2.177749395E0,5.789554596E0
6.901746081E0,-1.805119038E0,2.213618517E0,5.057184219E0
6.910937081E0,-7.066892385E-1,2.470957518E0,3.953757286E0
6.921089081E0,4.244123697E-1,2.627905846E0,2.641665459E0
6.931280081E0,1.472667694E0,2.485896111E0,1.079485893E0
6.941055081E0,2.184506416E0,2.408977985E0,-2.171325684E-1
6.950984081E0,2.417970419E0,2.168304920E0,-9.944324493E-1
6.960982081E0,2.425803661E0,2.035765409E0,-1.990053177E0
6.970991081E0,2.208914042E0,1.831046700E0,-2.416112423E0
6.981881081E0,1.764017582E0,1.701893449E0,-2.528274059E0
6.990983081E0,1.189809918E0,1.637097716E0,-2.299438477E0
7.001113081E0,6.406032443E-1,1.521548271E0,-1.762777328E0
7.010958081E0,1.441123486E-1,1.430181146E0,-1.177308083E0
7.020910081E0,-2.672235966E-1,1.322491407E0,-7.611761093E-1
7.031112081E0,-5.330866575E-1,1.192735553E0,-6.210279465E-1
7.040924081E0,-7.004159689E-1,1.133206844E0,-7.820167542E-1
7.051075081E0,-7.339619398E-1,1.066442966E0,-1.161633492E0
7.061391081E0,-4.037235975E-1,1.067917347E0,-2.403648376E0
7.074761081E0,-1.540349722E-1,9.697375298E-1,-2.995547771E0
7.090973081E0,8.346080780E-3,7.404673100E-1,-3.742070675E0
7.100934081E0,-5.258941650E-2,6.236765385E-1,-3.932328224E0
7.111083081E0,-1.253538132E-1,5.249826908E-1,-4.007292271E0
7.120904081E0,-1.132551432E-1,4.003417492E-1,-4.011947632E0
7.131077081E0,2.349412441E-2,2.555085421E-1,-3.900103569E0
7.140913081E0,4.090523720E-2,1.799350977E-1,-3.662365913E0
7.150975081E0,7.240080833E-2,1.561437845E-1,-3.344162941E0
7.161190081E0,1.797343493E-1,5.207300186E-3,-3.011519432E0
7.170916081E0,2.093646526E-1,-1.739951372E-1,-2.777856350E0
7.180920081E0,1.986129284E-1,-3.689626455E-1,-2.618367672E0
7.191006081E0,1.526768208E-1,-5.149662495E-1,-2.447641373E0
7.200868081E0,1.279563904E-1,-5.975134373E-1,-2.238503456E0
7.210926081E0,1.961494684E-1,-6.507539749E-1,-1.955209732E0
7.220905081E0,3.890235424E-1,-7.015373707E-1,-1.531747818E0
7.231087081E0,6.067351103E-1,-7.778213024E-1,-9.515161514E-1
7.241022081E0,9.075570107E-1,-9.441159964E-1,-3.837718964E-1
7.251383081E0,1.245831609E0,-1.136759281E0,6.615161896E-2
7.260894081E0,1.748531103E0,-1.382956862E0,3.590469360E-1
7.270914081E0,2.392549992E0,-1.732737541E0,5.789203644E-1
7.280885081E0,2.979041815E0,-2.057481289E0,7.960815430E-1
7.290895081E0,3.549717426E0,-2.350569487E0,1.390207291E0
7.300863081E0,3.942913055E0,-2.558586597E0,2.429822922E0
7.310884081E0,4.044488430E0,-2.826564550E0,3.755418777E0
7.321088081E0,3.867600918E0,-3.254273891E0,4.857328415E0
7.330943081E0,3.228907108E0,-3.683606625E0,5.539172173E0
7.340911081E0,2.048547268E0,-3.730644703E0,5.657374382E0
7.350865081E0,4.439077377E-1,-3.280905962E0,5.352257729E0
7.360921081E0,-1.028526306E0,-2.690466881E0,4.631567955E0
7.371349081E0,-1.965205550E0,-2.116513252E0,4.110686302E0
7.380907081E0,-2.419860125E0,-1.611103058E0,3.783463478E0
7.391139081E0,-2.363092184E0,-9.957411885E-1,2.952363014E0
7.400987081E0,-1.786386609E0,-5.852501988E-1,2.112179756E0
7.410936081E0,-9.365488291E-1,-2.219756842E-1,1.732814789E0
7.421243081E0,-3.447803259E-1,4.169321060E-1,1.014319420E0
7.431140081E0,3.584680557E-1,9.359831214E-1,1.370239258E-2
7.441017081E0,1.115470886E0,1.186150789E0,-5.879898071E-1
7.451045081E0,1.633679390E0,1.360315323E0,-7.108802795E-1
7.460928081E0,1.904652357E0,1.470214367E0,-4.861135483E-1
7.470945081E0,1.951705694E0,1.549824357E0,-7.872104645E-2
7.480933081E0,1.827500820E0,1.565770864E0,4.184093475E-1
7.491257081E0,1.598616481E0,1.667467833E0,9.698734283E-1
7.500870081E0,1.298998952E0,1.781307697E0,1.421626091E0
7.510889081E0,9.920707345E-1,1.857482791E0,1.676903725E0
7.521172081E0,8.739305735E-1,2.041066170E0,1.678668022E0
7.530988081E0,7.150263786E-1,1.919264555E0,1.613560677E0
7.541748081E0,5.737364292E-1,1.879606247E0,1.305068016E0
7.550977081E0,4.736290574E-1,1.810722113E0,8.841791153E-1
7.561111081E0,4.403697252E-1,1.697402716E0,1.122121811E-1
7.571256081E0,4.340376258E-1,1.601269603E0,-3.976173401E-1
7.580938081E0,3.371528983E-1,1.477155447E0,-6.815776825E-1
7.590946081E0,2.516915798E-1,1.378986001E0,-1.115003586E0
7.601040081E0,2.116863728E-1,1.217459083E0,-2.051501274E0
7.611477081E0,1.447034478E-1,8.793475032E-1,-2.295302391E0
7.620928081E0,1.196742058E-2,6.575264931E-1,-2.478362083E0
7.630951081E0,-2.193282843E-1,4.429783225E-1,-2.483533859E0
7.640905081E0,-5.291044712E-1,2.554549575E-1,-2.279612064E0
7.651010081E0,-8.891741037E-1,1.087900400E-1,-2.012808323E0
7.661063081E0,-1.195232749E0,-5.185842514E-3,-1.700238228E0
7.671395081E0,-1.395725846E0,-1.174167693E-1,-1.492038727E0
7.681077081E0,-1.461130142E0,-1.946669221E-1,-1.427577972E0
7.690963081E0,-1.360544443E0,-2.608501017E-1,-1.454209328E0
7.700959081E0,-1.144525409E0,-3.043593168E-1,-1.553966522E0
7.710941081E0,-8.357192278E-1,-3.478280902E-1,-1.676501274E0
7.720976081E0,-5.188111067E-1,-3.820847273E-1,-1.607092857E0
7.731812081E0,-2.608330250E-1,-3.687121272E-1,-1.531235695E0
7.740925081E0,-8.948671818E-2,-4.201004505E-1,-1.370175362E0
7.750986081E0,-6.009447575E-2,-4.662033021E-1,-1.231396675E0
7.760917081E0,-2.102797031E-1,-4.126130342E-1,-1.079803467E0
7.771005081E0,-3.521019220E-1,-3.558627367E-1,-8.694019318E-1
7.781571081E0,-3.440687656E-1,-3.406520486E-1,-5.670299530E-1
7.790979081E0,-2.343844175E-1,-2.207385898E-1,-3.635272980E-1
7.801309081E0,-1.097377539E-1,3.281950951E-3,-2.198810577E-1
7.810974081E0,2.642352581E-1,1.337122917E-1,-7.299613953E-2
7.820947081E0,1.016440153E0,-2.646589279E-2,9.759712219E-2
7.831075081E0,1.844459772E0,-1.828953028E-1,5.437583923E-1
7.840905081E0,2.329857826E0,1.791322231E-2,1.352364540E0
7.851342081E0,2.586213112E0,1.753945351E-1,2.252868652E0
7.861133081E0,2.275928020E0,8.168059587E-2,3.621674538E0
7.870978081E0,1.417221427E0,-6.907302141E-2,5.547067642E0
7.881160081E0,4.291752577E-1,2.369917929E-1,6.591953278E0
7.890994081E0,-6.409729123E-1,5.386095047E-1,7.730587959E0
7.901252081E0,-1.600740433E0,1.176643610E0,8.026398659E0
7.910938081E0,-2.152565479E0,1.925498009E0,7.279148102E0
7.921010081E0,-1.815004110E0,2.612834454E0,7.007633209E0
7.930948081E0,-9.448403120E-1,2.846640587E0,6.158305168E0
7.942527081E0,-1.919708252E-1,3.215066195E0,4.326536179E0
7.951051081E0,5.570824742E-1,3.384835720E0,2.279904366E0
7.961067081E0,1.417594910E0,3.265773296E0,-1.519117355E-1
7.971131081E0,1.576312304E0,3.355951071E0,-1.207830429E0
7.981047081E0,1.696243286E0,2.930902958E0,-1.964628696E0
7.990990081E0,1.858810663E0,2.999429941E0,-2.523420811E0
8.000883081E0,1.624540567E0,3.044445753E0,-3.073837280E0
8.011109081E0,1.358545303E0,3.014018536E0,-3.410290718E0
8.021742081E0,1.016340613E0,2.881034374E0,-3.576250553E0
8.030900081E0,6.030921936E-1,2.696865082E0,-3.396844387E0
8.040919081E0,2.096486092E-1,2.536477327E0,-2.951042652E0
8.050891081E0,-1.221944690E-1,2.415884733E0,-2.353344440E0
8.061075081E0,-3.147584796E-1,2.241675615E0,-1.904884338E0
8.070948081E0,-5.129300356E-1,2.043427467E0,-1.922400475E0
8.080925081E0,-7.558043599E-1,1.938694239E0,-1.972028255E0
8.091145081E0,-1.050931931E0,1.822609663E0,-1.776147366E0
8.100904081E0,-1.210067868E0,1.822232246E0,-1.688465118E0
8.111012081E0,-1.162985444E0,1.846766710E0,-1.675771713E0
8.120944081E0,-9.908815622E-1,1.783880472E0,-1.813530445E0
8.130926081E0,-7.429919243E-1,1.676337123E0,-2.015402317E0
8.141502081E0,-3.917994499E-1,1.447132945E0,-2.433469296E0
8.150974081E0,-2.858991623E-1,1.300244927E0,-2.438996792E0
8.161066081E0,-2.618372440E-1,1.113285661E0,-2.345427513E0
8.170956081E0,-3.509275913E-1,9.840945601E-1,-2.132685661E0
8.180972081E0,-3.421028852E-1,7.707707286E-1,-1.872207642E0
8.192122081E0,-2.584297657E-1,4.645195603E-1,-1.680689812E0
8.201160081E0,-1.789121628E-1,2.592307329E-1,-1.553612709E0
8.211073081E0,2.136588097E-3,6.347352266E-2,-1.459072113E0
8.220928081E0,2.391630411E-1,-1.752886176E-1,-1.478808403E0
8.230953081E0,4.603952169E-1,-2.966590524E-1,-1.454892159E0
8.241019081E0,7.358868718E-1,-3.916118145E-1,-1.270509720E0
8.250985081E0,1.116155386E0,-5.500587225E-1,-8.861999512E-1
8.261336081E0,1.510710001E0,-7.643749714E-1,-4.984388351E-1
8.270969081E0,1.902964115E0,-9.751870632E-1,-1.831035614E-1
8.280937081E0,2.493318081E0,-1.364254594E0,1.375408173E-1
8.290936081E0,3.185702801E0,-1.869157791E0,5.520553589E-1
8.301001081E0,3.765388012E0,-2.238471270E0,1.047032356E0
8.310957081E0,4.081433296E0,-2.368326664E0,1.570835114E0
8.321067081E0,4.154189587E0,-2.407730103E0,2.186824799E0
8.331157081E0,4.021972179E0,-2.627335072E0,2.967945099E0
8.341061081E0,3.517929792E0,-2.792207956E0,3.663364410E0
8.351001081E0,2.736707926E0,-2.788239717E0,4.158655167E0
8.360914081E0,1.837256670E0,-2.564159632E0,4.391052246E0
8.370922081E0,1.167515755E0,-2.319829464E0,4.475233078E0
8.380980081E0,6.605495214E-1,-2.018674374E0,4.499543190E0
8.390969081E0,1.143506169E-1,-1.559000850E0,4.425460815E0
8.401327081E0,-4.417403936E-1,-9.572814703E-1,4.058238029E0
8.410988081E0,-8.019179106E-1,-3.470450044E-1,3.246058464E0
8.421056081E0,-8.927105665E-1,1.222477108E-1,2.158117294E0
8.431022081E0,-8.832850456E-1,3.942707479E-1,1.115984917E0
8.441000081E0,-8.752754927E-1,6.898902059E-1,3.416786194E-1
8.450923081E0,-9.171228409E-1,1.104464769E0,-4.564571381E-1
8.461003081E0,-8.357330561E-1,1.413673520E0,-1.276953697E0
8.471217081E0,-5.965951681E-1,1.621543050E0,-1.930299282E0
8.480930081E0,-2.524752617E-1,1.834999800E0,-2.423146248E0
8.491099081E0,1.291787624E-1,2.008350372E0,-2.718640804E0
8.500893081E0,5.215886235E-1,2.073255539E0,-2.844025612E0
8.510940081E0,7.937786579E-1,2.086422443E0,-2.733309269E0
8.520907081E0,9.362520576E-1,2.004811287E0,-2.385614872E0
8.530880081E0,9.293290377E-1,1.849951267E0,-1.953334332E0
8.540996081E0,7.811515331E-1,1.691679239E0,-1.488289833E0
8.551038081E0,4.754307568E-1,1.566125512E0,-1.017292023E0
8.561050081E0,1.084687710E-1,1.516674757E0,-5.188703537E-1
8.570944081E0,-2.265882492E-1,1.438303590E0,-1.598672867E-1
8.581052081E0,-5.177203417E-1,1.357355833E0,3.586196899E-2
8.590949081E0,-7.114518881E-1,1.309481382E0,9.603500366E-2
8.601049081E0,-7.814538479E-1,1.259241939E0,5.386352539E-2
8.610957081E0,-7.096406221E-1,1.154275060E0,-7.521343231E-2
8.620922081E0,-5.265477896E-1,1.012280226E0,-2.744722366E-1
8.630898081E0,-3.319512606E-1,8.743596077E-1,-5.846281052E-1
8.641051081E0,-2.597351968E-1,7.903589010E-1,-8.164701462E-1
8.651468081E0,-3.581009507E-1,5.820821524E-1,-7.436857224E-1
8.660935081E0,-3.619014025E-1,5.385460258E-1,-7.422275543E-1
8.671036081E0,-4.240757227E-1,4.100227952E-1,-2.554998398E-1
8.681198081E0,-2.401322424E-1,2.214376330E-1,1.333751678E-1
8.690944081E0,3.586220741E-2,8.130997419E-2,6.731920242E-1
8.701427081E0,4.096702337E-1,-1.148568392E-1,1.190360069E0
8.710930081E0,7.469694614E-1,-3.661170006E-1,1.519153595E0
8.721305081E0,1.068870306E0,-6.412009001E-1,1.738936424E0
8.731014081E0,1.435178041E0,-1.014785171E0,2.063701630E0
8.741043081E0,1.788980126E0,-1.406561852E0,2.520698547E0
8.750963081E0,1.978915453E0,-1.613084674E0,3.280139923E0
8.761039081E0,1.966371894E0,-1.565154195E0,4.170448303E0
8.771601081E0,1.801309705E0,-1.423250198E0,5.143608093E0
8.781120081E0,1.454679012E0,-1.146341085E0,6.208186150E0
8.790929081E0,1.057895660E0,-7.506014109E-1,6.982449532E0
8.801014081E0,9.096528292E-1,-3.725155592E-1,7.517151833E0
8.810953081E0,1.042694449E0,5.345514417E-2,7.653658867E0
8.820941081E0,1.429484844E0,6.489721537E-1,7.408417702E0
8.830998081E0,1.798519135E0,8.553296328E-1,6.856649399E0
8.841069081E0,1.851948738E0,1.088266134E0,6.570327759E0
8.851139081E0,1.026781201E0,1.448866010E0,6.061931610E0
8.861848081E0,2.933868766E-1,1.811748505E0,4.951283455E0
8.870958081E0,-3.375389278E-1,1.879345536E0,3.540461540E0
8.880987081E0,-8.581210971E-1,1.866430759E0,2.159619331E0
8.890936081E0,-1.279859304E0,1.847234368E0,8.447713852E-1
8.900922081E0,-1.487533927E0,1.748211861E0,-4.687471390E-1
8.911759081E0,-1.531755328E0,1.626257777E0,-1.634800911E0
8.920971081E0,-1.486315250E0,1.631474614E0,-2.726375103E0
8.930927081E0,-1.399848819E0,1.689934134E0,-3.626737595E0
8.940910081E0,-1.281211495E0,1.760911465E0,-4.302264214E0
8.951233081E0,-1.167075276E0,1.875765681E0,-4.797593594E0
8.961484081E0,-1.096602559E0,1.918940783E0,-5.105326176E0
8.970950081E0,-1.037944674E0,1.929714561E0,-5.311227322E0
8.981122081E0,-1.045690775E0,1.814952612E0,-5.436006069E0
8.990929081E0,-1.091482401E0,1.801278114E0,-5.410200119E0
9.000925081E0,-1.103252053E0,1.781923413E0,-5.119335175E0
9.010936081E0,-1.213326812E0,1.683432221E0,-4.722562313E0
9.021045081E0,-1.462808132E0,1.578777790E0,-4.280610561E0
9.032034081E0,-1.755388379E0,1.474656343E0,-3.855683327E0
9.040933081E0,-2.089800835E0,1.387545943E0,-3.368487835E0
9.050982081E0,-2.346684694E0,1.253200412E0,-2.842861176E0
9.060983081E0,-2.610522747E0,1.208923936E0,-2.300263405E0
9.072046081E0,-2.736685753E0,1.149448633E0,-1.792089462E0
9.081248081E0,-2.706710815E0,1.031986833E0,-1.355568886E0
9.090901081E0,-2.586127758E0,9.002733231E-1,-1.048171043E0
9.101157081E0,-2.333364964E0,7.587719560E-1,-7.406949997E-1
9.110969081E0,-1.963964105E0,6.273908615E-1,-4.726772308E-1
9.120933081E0,-1.539198756E0,5.606809855E-1,-1.675224304E-1
9.130896081E0,-1.031435370E0,4.512509108E-1,3.244533539E-1
9.141537081E0,-3.718627691E-1,2.358436882E-1,1.133838654E0
9.151266081E0,3.505021632E-1,-1.149838194E-1,2.125598907E0
9.160906081E0,9.730114341E-1,-5.648099780E-1,3.211449623E0
9.170927081E0,1.267560482E0,-1.000129461E0,4.221782684E0
9.180867081E0,1.164785504E0,-1.246376157E0,5.020516396E0
9.191177081E0,6.134068966E-1,-1.349505067E0,5.809690475E0
9.201075081E0,-1.746893674E-1,-1.381297231E0,6.398102760E0
9.210959081E0,-8.997788429E-1,-1.443742514E0,6.153085709E0
9.221101081E0,-1.662278175E0,-1.324208736E0,5.100070953E0
9.231004081E0,-1.044287682E0,-1.441914320E0,4.257750511E0
9.241040081E0,1.851906478E-1,-1.765598655E0,3.757284164E0
9.250971081E0,1.421541095E0,-1.634280443E0,2.854573250E0
9.261000081E0,2.751736403E0,-1.356814981E0,1.772083282E0
9.271644081E0,4.217449665E0,-1.426331997E0,1.016179085E0
9.281038081E0,5.382629871E0,-1.551933885E0,3.806972504E-1
9.290964081E0,5.925913811E0,-1.625859380E0,-4.433059692E-2
9.301269081E0,5.810647488E0,-1.719032288E0,-3.029994965E-1
9.311131081E0,5.071809769E0,-1.746408939E0,-5.368623734E-1
9.321054081E0,3.976451635E0,-1.637874603E0,-8.816776276E-1
9.330966081E0,2.803984404E0,-1.414923072E0,-1.086410522E0
9.340926081E0,1.851116776E0,-1.223704815E0,-1.052914619E0
9.350904081E0,1.085176945E0,-1.006429076E0,-1.039472580E0
9.361192081E0,6.256072521E-1,-7.886893749E-1,-1.191829681E0
9.371484081E0,5.129045248E-1,-6.495916247E-1,-1.496602058E0
9.381031081E0,5.931838751E-1,-4.623050690E-1,-1.889920235E0
9.390919081E0,8.478819132E-1,-3.216429353E-1,-2.298357964E0
9.401204081E0,1.184637785E0,-2.357353866E-1,-2.662376404E0
9.411054081E0,1.537177324E0,-1.604326367E-1,-2.849581242E0
9.421654081E0,1.840004921E0,-6.738250703E-2,-3.026355743E0
9.430945081E0,2.008322239E0,3.708149493E-2,-3.317178249E0
9.440909081E0,2.054957628E0,1.480960399E-1,-3.623983383E0
9.450956081E0,1.998525620E0,1.943326592E-1,-3.888636112E0
9.460895081E0,1.885014057E0,2.269222587E-1,-4.076755047E0
9.471402081E0,1.785904884E0,2.480087876E-1,-4.301801682E0
9.480874081E0,1.734061956E0,2.611998320E-1,-4.408298969E0
9.491028081E0,1.712335110E0,2.848123908E-1,-4.347325325E0
9.500948081E0,1.689353347E0,2.877177596E-1,-4.253177166E0
9.510907081E0,1.634291649E0,2.569392025E-1,-3.941646576E0
9.521022081E0,1.524750710E0,1.978704035E-1,-3.412961960E0
9.530993081E0,1.432317972E0,1.025591493E-1,-2.682848454E0
9.541051081E0,1.350292683E0,-3.427188098E-2,-2.032554150E0
9.550882081E0,1.291972518E0,-1.706450284E-1,-1.447316170E0
9.560895081E0,1.227230906E0,-2.201210707E-1,-9.998855591E-1
9.570994081E0,1.132120848E0,-2.058988214E-1,-5.153989792E-1
9.580951081E0,9.191949964E-1,-2.240314186E-1,-1.681613922E-1
9.591246081E0,5.936257839E-1,-2.569877207E-1,1.396036148E-1
9.601100081E0,2.503397167E-1,-2.391038090E-1,3.329133987E-1
9.611055081E0,-9.209775925E-2,-1.782406569E-1,4.906034470E-1
9.620915081E0,-4.019012451E-1,-1.719867736E-1,9.096279144E-1
9.630907081E0,-6.839610338E-1,2.244795114E-2,1.173437119E0
9.642153081E0,-8.092092872E-1,1.792657226E-1,1.364767075E0
9.650904081E0,-9.917873144E-1,1.593191922E-1,1.555516243E0
9.661439081E0,-1.167536497E0,3.230923116E-1,1.601888657E0
9.671161081E0,-1.284712553E0,3.786990643E-1,1.535831451E0
9.680898081E0,-1.487237453E0,3.480280638E-1,1.391654015E0
9.691120081E0,-1.713490963E0,3.347138166E-1,1.201818466E0
9.701066081E0,-1.999649167E0,3.903899193E-1,8.462867737E-1
9.711330081E0,-2.222589731E0,4.613087177E-1,3.394489288E-1
9.721131081E0,-2.187427044E0,4.279781580E-1,-1.759414673E-1
9.730906081E0,-2.037787199E0,4.264868498E-1,-6.407461166E-1
9.741578081E0,-1.660069108E0,4.644280374E-1,-1.249726295E0
9.751149081E0,-1.445422173E0,4.983049333E-1,-1.310156822E0
9.761804081E0,-1.262091637E0,6.046858430E-1,-1.095844269E0
9.770994081E0,-9.277875423E-1,6.985981464E-1,-9.098701477E-1
9.780941081E0,-6.228505373E-1,6.283453703E-1,-9.356365204E-1
9.790983081E0,-4.510320127E-1,7.197553515E-1,-7.806158066E-1
9.801303081E0,-2.520728111E-1,8.243770003E-1,-7.028331757E-1
9.810920081E0,4.427396059E-1,7.034948468E-1,-6.467418671E-1
9.821068081E0,2.095564604E0,3.130757809E-2,1.936101913E-1
9.830987081E0,3.702014446E0,-4.023610353E-1,1.905890465E0
9.840905081E0,4.283323288E0,3.426611423E-2,3.029774666E0
9.851309081E0,4.406837940E0,1.213983297E-1,3.419609070E0
9.861266081E0,4.129856110E0,-5.816745162E-1,4.771543503E0
9.870933081E0,2.831415415E0,-1.287847281E0,6.791808128E0
9.880918081E0,9.403676987E-1,-9.684971571E-1,7.481702805E0
9.890942081E0,-8.968958855E-1,-5.817614794E-1,7.533451080E0
9.900992081E0,-2.323146105E0,-4.337173700E-2,6.659379959E0
9.911067081E0,-3.159838200E0,6.938016415E-1,5.554111481E0
9.920888081E0,-3.295293331E0,1.203452706E0,4.034454346E0
9.930918081E0,-2.712914467E0,1.474370241E0,3.130685806E0
9.941048081E0,-1.460143566E0,1.689179063E0,3.203872681E0
9.951385081E0,-4.145863056E-1,1.964525342E0,1.793149948E0
9.960896081E0,5.089304447E-1,2.630851269E0,-9.790315628E-1
9.972271081E0,8.942637444E-1,3.096238613E0,-2.623322010E0
9.980935081E0,1.200543880E0,2.972226620E0,-3.171109676E0
9.990919081E0,1.119378090E0,2.788969517E0,-3.232259750E0
1.000153208E1,6.246252060E-1,2.761831284E0,-3.087764740E0
1.001093108E1,1.437050402E-1,2.739596367E0,-2.851936340E0
1.002112508E1,-3.660990000E-1,2.686269045E0,-2.722300053E0
1.003095208E1,-7.915866375E-1,2.594752550E0,-2.687431335E0
1.004185108E1,-1.117379427E0,2.456512451E0,-2.676407814E0
1.005093208E1,-1.349132299E0,2.271173000E0,-2.585333347E0
1.006101808E1,-1.482858419E0,2.127992153E0,-2.376689911E0
1.007113608E1,-1.571617723E0,2.032618046E0,-2.121981144E0
1.008087308E1,-1.567848682E0,1.924614668E0,-2.030399323E0
1.009093808E1,-1.479412079E0,1.688811541E0,-2.118252754E0
1.010087308E1,-1.386090994E0,1.434178472E0,-2.249868870E0
1.011098908E1,-1.381711483E0,1.242485523E0,-2.673095703E0
1.012091608E1,-1.333930731E0,1.092598200E0,-3.231523037E0
1.013095208E1,-1.201163530E0,8.800808191E-1,-3.414460182E0
1.014096308E1,-1.013317823E0,8.795820475E-1,-3.552855968E0
1.015090708E1,-7.296674252E-1,3.266621828E-1,-3.567079067E0
1.016091308E1,-5.744606256E-1,1.723614931E-1,-3.048116684E0
1.017091408E1,-5.319767594E-1,1.050245762E-1,-2.410163879E0
1.018519908E1,-3.026000857E-1,-4.749888778E-1,-1.406554222E0
1.020107408E1,-2.221514583E-1,-7.949463725E-1,-1.061244965E0
1.021096008E1,-1.973046660E-1,-1.041762471E0,-6.910552979E-1
1.022091208E1,-3.239321709E-2,-1.251598835E0,-3.194065094E-1
1.023136208E1,2.532667518E-1,-1.418788433E0,4.499435425E-2
1.024089508E1,5.572701693E-1,-1.533087611E0,3.226842880E-1
1.025089308E1,9.167785645E-1,-1.607860208E0,6.150121689E-1
1.026091808E1,1.328625679E0,-1.729212880E0,8.770799637E-1
1.027096408E1,1.873325109E0,-1.895727038E0,1.032124519E0
1.028088608E1,2.534570456E0,-2.128713846E0,1.189358711E0
1.029092808E1,3.882825851E0,-2.311970711E0,1.926661491E0
1.030141208E1,4.316442966E0,-2.417223454E0,2.583572388E0
1.031100508E1,4.602772236E0,-2.517253160E0,3.230076790E0
1.032133608E1,4.627327919E0,-2.696557760E0,3.473375320E0
1.033104808E1,4.070772648E0,-2.809485435E0,3.759298325E0
1.034098408E1,2.886400461E0,-2.603106976E0,4.011292458E0
1.035091708E1,1.451316595E0,-2.153404474E0,3.893683434E0
1.036101008E1,1.199327111E-1,-1.812528133E0,3.421580315E0
1.037327308E1,-9.311850667E-1,-1.551838398E0,2.952232361E0
1.039099408E1,-2.513642073E0,-9.347782135E-1,1.548701286E0
1.040086908E1,-3.036751986E0,-2.709871531E-1,7.308673859E-1
1.041095308E1,-3.167797089E0,4.056372643E-1,8.038139343E-2
1.042371608E1,-2.864427090E0,9.396129847E-1,-1.295633316E-1
1.044092008E1,-1.171776533E0,1.683917046E0,-1.267013550E-1
1.045086108E1,-1.384682059E-1,2.008365154E0,-1.592197418E-1
1.046139308E1,7.726092339E-1,2.388686657E0,-1.966524124E-1
1.047102608E1,1.508169651E0,2.741526127E0,-3.437490463E-1
1.048096008E1,1.749824047E0,2.710150957E0,-8.610620499E-1
1.049179708E1,1.876578331E0,2.646854401E0,-1.485709190E0
1.050089408E1,1.727374434E0,2.384756088E0,-1.642469406E0
1.051105708E1,1.403070331E0,2.056644201E0,-1.428561211E0
1.052093208E1,9.918675423E-1,1.761923075E0,-1.141443253E0
1.053090108E1,5.056721568E-1,1.549652338E0,-7.649278641E-1
1.054096408E1,-5.409836769E-3,1.371326208E0,-4.696989059E-1
1.055093708E1,-4.489126801E-1,1.218686581E0,-4.386959076E-1
1.056090708E1,-6.259300709E-1,1.026041865E0,-7.714805603E-1
1.057090308E1,-5.294156671E-1,7.534769773E-1,-1.052483559E0
1.058098008E1,-3.653830886E-1,4.870527983E-1,-1.200785637E0
1.059103108E1,-2.084254324E-1,2.412056327E-1,-1.334583282E0
1.060095808E1,-1.334067583E-1,7.241725922E-2,-1.711607933E0
1.061095508E1,-8.169841766E-2,-8.825093508E-2,-2.142357826E0
1.062769808E1,-1.130510569E-1,-5.773347616E-1,-2.342729092E0
1.064096908E1,-1.532703638E-1,-8.456873894E-1,-2.192840576E0
1.065158408E1,-2.528665066E-1,-1.081193686E0,-1.814170361E0
1.066092308E1,-3.254660964E-1,-1.239694238E0,-1.338489532E0
1.067108508E1,-3.474349380E-1,-1.329629779E0,-8.560848236E-1
1.068196708E1,-3.137562275E-1,-1.386779666E0,-3.665981293E-1
1.069091008E1,-2.420294285E-1,-1.400446296E0,-5.991649628E-2
1.070103508E1,-2.070529461E-1,-1.310223341E0,4.780864716E-2
1.071180908E1,-2.579256296E-1,-1.212985873E0,2.650451660E-1
1.072098408E1,-3.882207870E-1,-9.788678885E-1,5.017690659E-1
1.073094408E1,-5.396450162E-1,-5.565828085E-1,6.602277756E-1
1.074091008E1,-1.737080812E-1,-2.818245888E-1,5.868377686E-1
1.075090708E1,7.869156599E-1,-4.415283203E-1,8.907918930E-1
1.076121008E1,1.850345254E0,-3.542745113E-1,2.185082436E0
1.077120008E1,2.642320156E0,2.125611305E-1,3.290569305E0
1.078112108E1,2.266929626E0,1.127131581E0,4.835022926E0
1.079110808E1,2.118358135E0,1.724070668E0,6.974836349E0
1.080105108E1,1.944307804E0,1.432962060E0,8.804978371E0
1.081188708E1,7.722283006E-1,1.465084195E0,7.913610458E0
1.082091508E1,5.624653101E-1,1.601981044E0,6.294900894E0
1.083100408E1,-1.421161294E-1,1.809479117E0,4.620690346E0
1.084093408E1,-4.167082906E-1,2.011376858E0,3.232908249E0
1.085092708E1,-1.527516842E-1,2.147554398E0,2.648396492E0
1.086091508E1,5.081351995E-1,2.381025314E0,1.872714996E0
1.087111608E1,7.410610914E-1,2.762335062E0,3.290872574E-1
1.088194508E1,9.189023376E-1,3.011171341E0,-1.174418449E0
1.089099008E1,1.049147367E0,3.019912720E0,-1.562722206E0
1.090136608E1,9.858263731E-1,2.932693243E0,-1.850512981E0
1.091393308E1,7.171761394E-1,2.839016438E0,-1.849602699E0
1.093114908E1,1.652665138E-1,2.729351521E0,-1.800876141E0
1.094098608E1,-7.932278514E-2,2.391578674E0,-2.006310940E0
1.095093508E1,-4.129456580E-1,2.192475796E0,-2.173090935E0
1.096115308E1,-6.906319857E-1,2.004860878E0,-2.206153870E0
1.097097908E1,-8.502135277E-1,1.865140676E0,-2.038928032E0
1.098126008E1,-8.031055331E-1,1.689596415E0,-2.052966118E0
1.099101708E1,-6.501905322E-1,1.660153627E0,-2.743845463E0
1.100102608E1,-3.633486927E-1,1.389009237E0,-3.032602787E0
1.101146308E1,-2.985323668E-1,1.075848103E0,-3.073331833E0
1.102113608E1,-5.064834356E-1,8.752603531E-1,-2.676028252E0
1.103137708E1,-5.527708530E-1,7.826066017E-1,-3.177854061E0
1.104094408E1,-5.786095262E-1,6.320328712E-1,-3.391708374E0
1.105097508E1,-3.889469504E-1,3.684518337E-1,-3.402607918E0
1.106091708E1,-1.314566433E-1,5.323410034E-3,-3.560723782E0
1.107111708E1,9.516257048E-2,-2.532472610E-1,-3.708925724E0
1.108213008E1,3.005450070E-1,-3.916397095E-1,-3.522130013E0
1.109095408E1,3.953135610E-1,-5.553004742E-1,-3.584598541E0
1.110170108E1,5.019656420E-1,-6.689600945E-1,-3.482623100E0
1.111094008E1,5.932296515E-1,-7.982170582E-1,-3.112030029E0
1.112108808E1,5.406417847E-1,-1.005416155E0,-2.648340702E0
1.113101708E1,2.657305896E-1,-1.165606737E0,-2.174711704E0
1.114092708E1,-2.707985640E-1,-1.118163586E0,-1.645177841E0
1.115139808E1,-6.304379702E-1,-1.066715479E0,-9.970760345E-1
1.116106008E1,-6.822239161E-1,-1.138932228E0,-1.893730164E-1
1.117098308E1,-6.253761649E-1,-1.171774387E0,4.622602463E-1
1.118098508E1,-5.494292974E-1,-1.104858637E0,1.040651321E0
1.119101008E1,-3.837404847E-1,-1.062201023E0,1.632027626E0
1.120132308E1,-1.161475182E-1,-9.844753742E-1,2.049152374E0
1.121091408E1,2.467177212E-1,-8.306550980E-1,2.194422722E0
1.122109708E1,7.701395750E-1,-7.229738235E-1,2.290611267E0
1.123092608E1,1.530660152E0,-6.674501896E-1,2.834324837E0
1.124115508E1,2.414597273E0,-6.007714272E-1,3.851265907E0
1.125116408E1,3.042358875E0,-4.689335823E-1,4.924288750E0
1.126092908E1,3.213297844E0,-2.781827450E-1,5.726287842E0
1.127101408E1,2.962311029E0,-2.792835236E-1,6.032564163E0
1.128101508E1,2.234495640E0,-3.657662868E-1,5.757080078E0
1.129106208E1,1.187908173E0,-4.474883080E-1,5.223257065E0
1.130117608E1,1.134675294E-1,-4.951932430E-1,4.384749413E0
1.131094608E1,-8.335656524E-1,-4.917781353E-1,3.325854301E0
1.132714708E1,-2.192470312E0,-1.385722160E-1,1.787565231E0
1.134099308E1,-2.168646097E0,1.954121590E-1,1.192112923E0
1.135204508E1,-1.247713685E0,6.603860855E-1,8.186149597E-2
1.136098508E1,-5.652868748E-1,9.534204006E-1,-2.221775055E-1
1.137095408E1,3.804433718E-2,1.327981710E0,-3.489542007E-1
1.138098608E1,5.844343305E-1,1.611716270E0,-7.636528015E-1
1.139092108E1,1.195108175E0,1.680236816E0,-1.243063927E0
1.140121608E1,1.679061294E0,1.525290012E0,-1.585050583E0
1.141119108E1,1.820299506E0,1.301574707E0,-1.794631004E0
1.142102308E1,1.725377083E0,1.033111572E0,-1.969521999E0
1.143095108E1,1.398278475E0,8.165309429E-1,-2.114974022E0
1.144105108E1,9.700121880E-1,6.529221535E-1,-2.257480145E0
1.145088708E1,5.383023024E-1,5.540657043E-1,-2.316571236E0
1.146091608E1,1.893464923E-1,4.933886528E-1,-2.272744656E0
1.147142908E1,4.387438297E-3,3.900673389E-1,-2.132476330E0
1.148127608E1,-7.425150275E-2,2.624616623E-1,-2.082980156E0
1.149094908E1,-1.269553900E-1,1.493380070E-1,-2.207141399E0
1.150090008E1,-1.594619453E-1,3.549289703E-2,-2.312918663E0
1.151094808E1,-1.867772341E-1,-9.446930885E-2,-2.445837975E0
1.152114108E1,-1.522982121E-1,-2.074055672E-1,-2.519901276E0
1.153105008E1,-4.338216782E-2,-2.946174145E-1,-2.537978649E0
1.154108008E1,1.281334758E-1,-3.766307831E-1,-2.450489998E0
1.155190008E1,2.993357182E-1,-4.876255989E-1,-2.322352409E0
1.156094808E1,3.936126232E-1,-6.189420223E-1,-2.093924046E0
1.157102108E1,4.415348768E-1,-7.607359886E-1,-1.808919907E0
1.158093908E1,3.700305223E-1,-9.677748680E-1,-1.762107372E0
1.159100608E1,2.786676288E-1,-1.126044035E0,-1.862621784E0
1.160090608E1,2.341454625E-1,-1.296843290E0,-1.929776192E0
1.161116608E1,2.429953814E-1,-1.387117147E0,-2.025719643E0
1.162186908E1,3.303153515E-1,-1.421892166E0,-2.304374695E0
1.163096108E1,4.415932894E-1,-1.457943916E0,-2.630227566E0
1.164100108E1,5.956816673E-1,-1.489826202E0,-2.509065151E0
1.165100808E1,7.450190187E-1,-1.425982952E0,-2.147525787E0
1.166096008E1,7.719209194E-1,-1.192063808E0,-2.026029587E0
1.167091608E1,5.902905464E-1,-8.517944813E-1,-1.963875771E0
1.168172108E1,2.254473269E-1,-4.418363571E-1,-1.589247227E0
1.169135908E1,-2.152126431E-1,-5.345344543E-2,-1.130267620E0
1.170104408E1,-6.703935862E-1,4.493756294E-1,-8.371734619E-1
1.171092308E1,-7.560482025E-1,9.150824547E-1,-6.281147003E-1
1.172149908E1,-1.220145822E-2,9.437286854E-1,-2.436380386E-1
1.173102908E1,1.341191888E0,8.594295979E-1,6.479978561E-1
1.174093408E1,2.668624878E0,1.357215166E0,1.713876724E0
1.175092308E1,3.764732838E0,1.682109594E0,2.431481361E0
1.176095408E1,4.415479183E0,1.539142847E0,3.541890144E0
1.177084808E1,4.333239079E0,1.321506739E0,5.470957756E0
1.178092008E1,3.558301687E0,9.084396362E-1,6.849186897E0
1.179181308E1,2.091497898E0,8.692605495E-1,7.128336906E0
1.180120408E1,2.559902668E-1,1.287116766E0,6.456601143E0
1.181101808E1,-1.381392479E0,1.888020277E0,5.210171700E0
1.182087808E1,-2.250353813E0,2.240327835E0,4.267210960E0
1.183089508E1,-2.156281710E0,2.388852358E0,3.981179237E0
1.184126708E1,-1.484881401E0,2.503715515E0,3.718966484E0
1.185101008E1,-6.320423484E-1,2.791963577E0,3.306127548E0
1.186103108E1,1.599530280E-1,3.093183517E0,2.418716431E0
1.187097808E1,8.789784908E-1,3.141940594E0,2.149278641E0
1.188094808E1,1.605025887E0,3.125380278E0,-3.771076202E-1
1.189169208E1,6.787711382E-1,2.703933954E0,-1.223697662E0
1.190120508E1,1.825162470E-1,2.566619396E0,-4.028787613E-1
1.191090308E1,-2.915630937E-1,2.168309212E0,-3.444557190E-1
1.192100108E1,-7.861577272E-1,1.819640636E0,-7.764110565E-1
1.193098008E1,-1.071530700E0,1.608485103E0,-6.570091248E-1
1.194088508E1,-1.270158529E0,1.510358691E0,-8.624887466E-1
1.195088208E1,-1.426589251E0,1.398882985E0,-1.374701500E0
1.196199508E1,-1.457765341E0,1.231700063E0,-1.818636894E0
1.197104008E1,-1.434540749E0,1.091691971E0,-2.008879662E0
1.198108108E1,-1.356167912E0,1.047734499E0,-2.329579353E0
1.199110308E1,-1.180278301E0,1.007050395E0,-2.868271351E0
1.200106808E1,-9.286117554E-1,7.706748247E-1,-3.474639893E0
1.201138608E1,-7.654951811E-1,5.522248745E-1,-3.972487450E0
1.202106608E1,-7.465747595E-1,4.546210766E-1,-4.357230663E0
1.203096008E1,-7.832669616E-1,3.714413643E-1,-4.556788445E0
1.204125708E1,-7.821087241E-1,2.823681831E-1,-4.475004196E0
1.205105608E1,-7.604791522E-1,2.349078655E-1,-4.096278667E0
1.206197708E1,-6.251832843E-1,1.404669285E-1,-3.720180988E0
1.207094208E1,-2.586492896E-1,-1.757822037E-1,-3.068954468E0
1.208133708E1,-6.633731723E-2,-3.283956051E-1,-2.537134647E0
1.209144508E1,-3.769859672E-2,-3.783996105E-1,-2.101468563E0
1.210098108E1,-1.053163409E-2,-4.714231491E-1,-1.627891064E0
1.211093108E1,2.731272578E-2,-6.486779451E-1,-1.084354401E0
1.212130808E1,8.403107524E-2,-8.860572577E-1,-5.435218811E-1
1.213198008E1,1.507831812E-1,-1.124501944E0,-1.270132065E-1
1.214109008E1,2.287938297E-1,-1.347776890E0,-7.411384583E-2
1.215097808E1,2.953205109E-1,-1.496102810E0,-2.289419174E-1
1.216106408E1,3.728930354E-1,-1.599337697E0,-2.967586517E-1
1.217097308E1,5.098525286E-1,-1.563946247E0,-4.231700897E-1
1.218201008E1,6.286809444E-1,-1.364762902E0,-6.011819839E-1
1.219095008E1,8.011029363E-1,-1.183092594E0,-4.651575089E-1
1.220128708E1,1.534464836E0,-1.279238939E0,-4.554653168E-2
1.221102008E1,2.769111395E0,-1.699120402E0,9.074964523E-1
1.222092808E1,3.984995127E0,-1.894384027E0,1.948071480E0
1.223115608E1,4.891925812E0,-1.653706789E0,3.477882385E0
1.224105608E1,5.449011803E0,-1.509578109E0,4.592312813E0
1.225159608E1,5.891171455E0,-2.262996674E0,5.094223022E0
1.226105008E1,5.345953941E0,-3.364135027E0,5.064956665E0
1.227109008E1,3.273660183E0,-3.552997589E0,4.954062462E0
1.228094308E1,5.272175074E-1,-2.979937553E0,4.680601120E0
1.229092908E1,-1.866356492E0,-2.304621220E0,3.743876457E0
1.230228708E1,-3.438198566E0,-1.736469865E0,3.016653061E0
1.231115008E1,-4.281733990E0,-1.072390437E0,2.615539551E0
1.232119708E1,-4.257831097E0,-5.474134088E-1,2.215210915E0
1.233184008E1,-3.438382626E0,-2.754197121E-1,1.785259247E0
1.234107808E1,-2.184912205E0,-6.009036303E-2,1.522174835E0
1.235109408E1,-8.836683631E-1,3.162361979E-1,1.308670998E0
1.236100208E1,2.253379822E-1,7.893452644E-1,9.491643906E-1
1.237307208E1,1.011100769E0,1.143989086E0,3.824815750E-1
1.238196008E1,2.142765284E0,1.420978308E0,-1.495576859E0
1.239100608E1,2.069130421E0,1.397275448E0,-1.498427391E0
1.240120208E1,2.275828362E0,1.327227354E0,-1.894182682E0
1.241105308E1,2.092210293E0,1.299126387E0,-1.800175190E0
1.242108308E1,1.681819916E0,1.267306328E0,-1.423864365E0
1.243184408E1,1.053146243E0,1.144532681E0,-6.030998230E-1
1.244105508E1,5.738383532E-1,9.499249458E-1,-2.065715790E-1
1.245100108E1,1.860721409E-1,8.764334321E-1,2.754402161E-2
1.246088908E1,-1.730007231E-1,7.618200183E-1,1.592502594E-1
1.247087408E1,-3.999053538E-1,7.326878905E-1,1.424455643E-1
1.248145808E1,-5.111106634E-1,6.618608832E-1,-2.165031433E-2
1.249091708E1,-6.217819452E-1,6.047535539E-1,-3.798217773E-1
1.250099108E1,-6.542932391E-1,5.549286604E-1,-8.625202179E-1
1.251093308E1,-6.629326940E-1,4.349617958E-1,-1.362135887E0
1.252087208E1,-7.460950613E-1,2.853336334E-1,-1.737505913E0
1.253091308E1,-8.827875257E-1,1.836050153E-1,-2.053696632E0
1.254091108E1,-1.011850238E0,5.014300346E-2,-2.029500961E0
1.255124708E1,-1.036055446E0,-2.151373625E-1,-1.928496361E0
1.256102508E1,-9.940064549E-1,-4.730097651E-1,-1.828075409E0
1.257210808E1,-9.588414431E-1,-5.676348209E-1,-1.683705330E0
1.258089008E1,-9.153442383E-1,-5.873751044E-1,-1.523798943E0
1.259092408E1,-9.167496562E-1,-5.950164795E-1,-1.241935730E0
1.260113808E1,-1.046196222E0,-5.095903277E-1,-8.639106750E-1
1.261099808E1,-1.402172327E0,-2.774393559E-1,-6.426477432E-1
1.262134908E1,-1.729944706E0,-1.907300949E-2,-4.779138565E-1
1.263115308E1,-1.897505999E0,1.628535986E-1,-4.004869461E-1
1.264358408E1,-1.875625134E0,3.682299852E-1,-2.168216705E-1
1.265398908E1,-1.272716403E0,3.126612902E-1,7.413768768E-2
1.267099808E1,1.420548916E0,-5.964174271E-1,1.294049263E0
1.268132308E1,2.452418566E0,-5.216851234E-1,2.655671120E0
1.269096608E1,2.975996733E0,-5.866954327E-1,4.492170334E0
1.270092608E1,3.232909203E0,-1.419902205E0,6.005957603E0
1.271094408E1,2.465173006E0,-2.183130026E0,6.860327721E0
1.272092308E1,4.866714478E-1,-2.149574995E0,7.062941551E0
1.273152808E1,-2.217092514E0,-1.062173724E0,6.643037796E0
1.274090408E1,-4.617371559E0,4.521899223E-1,5.774017334E0
1.275090908E1,-5.804085732E0,1.550827265E0,4.951160431E0
1.276088208E1,-5.677816391E0,1.985804081E0,4.194486618E0
1.277091708E1,-4.452195168E0,2.178998232E0,3.905404091E0
1.278103208E1,-2.871112823E0,1.977294445E0,3.021271706E0
1.279140408E1,-1.455292225E0,2.425570250E0,2.229578972E0
1.280117408E1,-2.286753207E-1,2.954361439E0,1.638501167E0
1.281275008E1,8.185195923E-1,3.250516176E0,7.109813690E-1
1.282093808E1,1.378711820E0,3.424338341E0,-5.459766388E-1
1.283096908E1,1.581723213E0,3.426886082E0,-1.850016117E0
1.284092908E1,1.426241875E0,3.514829159E0,-3.635564327E0
1.285094308E1,1.251674891E0,3.336185217E0,-4.870478153E0
1.286145308E1,9.100266099E-1,3.169852495E0,-5.257088661E0
1.287090408E1,4.419911802E-1,3.055139780E0,-5.381126881E0
1.288112808E1,-2.165099978E-2,2.936384678E0,-5.258467674E0
1.289101408E1,-3.888680935E-1,2.739629745E0,-5.009048939E0
1.290092508E1,-6.247592568E-1,2.502652645E0,-4.723361015E0
1.291093208E1,-7.353192568E-1,2.294915199E0,-4.447850227E0
1.292090408E1,-7.455039620E-1,2.008308172E0,-4.337987900E0
1.293195408E1,-7.473802567E-1,1.205539346E0,-3.632898331E0
1.294092108E1,-7.497056127E-1,1.178860068E0,-3.630121231E0
1.295095308E1,-7.432330847E-1,8.096243143E-1,-3.320301533E0
1.296113308E1,-7.945914268E-1,5.831857920E-1,-2.700053692E0
1.297091308E1,-7.862116098E-1,1.893396378E-1,-2.334937572E0
1.298110408E1,-6.878570318E-1,-1.903667450E-1,-1.897836208E0
1.299101908E1,-5.664032698E-1,-4.652298093E-1,-1.456565857E0
1.300099508E1,-5.040979385E-1,-5.732132792E-1,-1.060894966E0
1.301153908E1,-4.913867116E-1,-6.687614322E-1,-6.541500092E-1
1.302093908E1,-4.171665311E-1,-6.723527312E-1,-4.123363495E-1
1.303093108E1,-2.797946930E-1,-8.167917728E-1,-3.823480606E-1
1.304099108E1,9.408563375E-2,-9.852458835E-1,-1.798915863E-2
1.305111808E1,8.676046133E-1,-1.360128880E0,3.456783295E-1
1.306140708E1,2.069387913E0,-1.896832585E0,8.502006531E-1
1.307131808E1,3.193720818E0,-2.401381493E0,1.431800842E0
1.308110108E1,4.087043762E0,-2.644259930E0,2.525002480E0
1.309213608E1,4.550257683E0,-2.748356104E0,4.073396683E0
1.310090308E1,4.539498806E0,-3.079527855E0,5.578706741E0
1.311126408E1,4.136978149E0,-4.023528099E0,6.516852379E0
1.312088908E1,2.690826654E0,-4.660865784E0,6.629180908E0
1.313086608E1,1.789385378E-1,-4.439523220E0,5.887488365E0
1.314125108E1,-2.277623653E0,-3.727417469E0,4.360091209E0
1.315088908E1,-4.179544449E0,-2.877146244E0,2.599758148E0
1.316165908E1,-5.149148464E0,-2.211898804E0,1.259154320E0
1.317092408E1,-5.053415298E0,-1.806772828E0,1.564979553E-1
1.318105108E1,-4.465569019E0,-1.435282469E0,-7.266330719E-1
1.319102608E1,-3.629133701E0,-9.885671139E-1,-1.201845169E0
1.320088008E1,-2.764383316E0,-3.498539329E-1,-1.460636139E0
1.321094608E1,-1.944029808E0,3.684841394E-1,-1.580149651E0
1.322107808E1,-1.333509922E0,1.023764729E0,-2.106997967E0
1.323097208E1,-6.643989086E-1,1.360575676E0,-2.676150322E0
1.324090308E1,-9.794670343E-2,1.410524726E0,-2.860416412E0
1.325094408E1,8.054158092E-2,1.394333839E0,-2.565536976E0
1.326205008E1,-1.174069345E-1,1.430461168E0,-2.128757954E0
1.327097308E1,-2.415623069E-1,1.649111748E0,-1.633872986E0
1.328102908E1,-2.799139023E-1,1.824807405E0,-1.048513412E0
1.329090508E1,-2.214888632E-1,1.896922112E0,-8.619117737E-1
1.330091308E1,-1.986567825E-1,1.954448938E0,-6.073608398E-1
1.331130808E1,-1.229235381E-1,2.046494007E0,-6.658267975E-1
1.332089808E1,8.049692214E-2,2.018089294E0,-6.648626328E-1
1.333148208E1,3.454016447E-1,1.917539477E0,-9.435758591E-1
1.334109508E1,5.184523463E-1,1.823869705E0,-1.164963722E0
1.335091108E1,5.718280673E-1,1.671174049E0,-1.306164742E0
1.336110708E1,5.703669190E-1,1.413992405E0,-1.315171242E0
1.337108108E1,5.667947531E-1,1.299967051E0,-1.235872269E0
1.338151908E1,7.181371450E-1,9.994522333E-1,-1.001161575E0
1.339098308E1,9.785985947E-1,6.792882681E-1,-9.126577377E-1
1.340100808E1,1.048255324E0,5.743129253E-1,-7.495889664E-1
1.341094008E1,8.611767888E-1,6.509941816E-1,-3.702468872E-1
1.342104608E1,5.904659033E-1,7.683622837E-1,-2.299118042E-2
1.343172808E1,3.332036436E-1,9.820467234E-1,1.859502792E-1
1.344095808E1,1.075986475E-1,1.142895699E0,3.920955658E-1
1.345095108E1,5.800414085E-1,9.299900532E-1,7.702989578E-1
1.346092308E1,2.153187990E0,7.939028740E-2,1.706899643E0
1.347097008E1,3.568231821E0,-1.725540161E-1,2.467159271E0
1.348090508E1,4.439559937E0,3.777387142E-1,2.831297874E0
1.349089908E1,5.425280571E0,3.848574162E-1,3.647098541E0
1.350090608E1,6.055892467E0,-2.076478004E-1,6.746680260E0
1.351098208E1,4.716041088E0,-2.562473059E0,6.810038567E0
1.352096808E1,1.968440771E0,-2.330619574E0,6.063385963E0
1.353095408E1,-1.089493990E0,-1.329116464E0,4.693969727E0
1.354113408E1,-3.406165838E0,-2.845844030E-1,3.112184525E0
1.355090408E1,-4.569909573E0,3.548436165E-1,2.037447929E0
1.356088908E1,-4.543315411E0,7.624170780E-1,1.524485588E0
1.357087808E1,-3.857550621E0,1.120865107E0,1.019326210E0
1.358085608E1,-2.711606026E0,1.666441560E0,7.619428635E-1
1.359096208E1,-1.481577873E0,2.371542454E0,7.130584717E-1
1.360176608E1,-2.742554545E-1,2.962317944E0,4.294681549E-1
1.361111208E1,6.601779461E-1,3.336019754E0,-9.627819061E-2
1.362106208E1,1.276122570E0,3.262233734E0,-9.792594910E-1
1.363158908E1,1.583892465E0,2.944882393E0,-2.287325859E0
1.364109908E1,1.549651861E0,2.589049578E0,-3.444808483E0
1.365093608E1,1.400785923E0,2.282827616E0,-4.024066448E0
1.366091108E1,1.095593929E0,1.949937224E0,-4.146754742E0
1.367110808E1,4.743570089E-1,1.729575396E0,-4.038133621E0
1.368212808E1,-1.301202178E-1,1.460915327E0,-3.588490009E0
1.369093508E1,-4.833248854E-1,1.118162870E0,-2.839710236E0
1.370177208E1,-7.251686454E-1,7.807914019E-1,-1.924547672E0
1.371116308E1,-9.305191040E-1,5.724027157E-1,-9.423971176E-1
1.372099608E1,-1.219884276E0,2.832934856E-1,-2.754592896E-2
1.373097308E1,-1.485146284E0,4.114723206E-2,7.167043686E-1
1.374096108E1,-1.469579935E0,-4.156996012E-1,9.450864792E-1
1.375155208E1,-1.224515438E0,-1.014263034E0,6.841440201E-1
1.376107508E1,-9.404326677E-1,-1.428864956E0,6.167583466E-1
1.377091308E1,-6.372873187E-1,-1.432701826E0,4.815006256E-2
1.378087108E1,1.353561878E-3,-1.340254903E0,-8.630790710E-1
1.379094408E1,7.663172483E-1,-1.127063513E0,-1.023581505E0
1.380199308E1,1.707213402E0,-1.049615622E0,-5.791797638E-1
1.381094108E1,2.836078405E0,-1.421070576E0,3.487548828E-1
1.382108408E1,3.615267992E0,-1.376401782E0,2.350019455E0
1.383098208E1,4.022854328E0,-1.826014161E0,4.878921509E0
1.384092808E1,3.822646379E0,-2.711956501E0,6.632070541E0
1.385097608E1,2.781228542E0,-3.630907297E0,7.244262695E0
1.386105508E1,1.260034084E0,-4.347460747E0,6.857728004E0
1.387190808E1,-4.181289077E-1,-4.529983521E0,5.129555702E0
1.388137508E1,-2.103324890E0,-4.058350563E0,3.047086716E0
1.389106908E1,-3.584517956E0,-3.247233629E0,1.494592667E0
1.390102108E1,-4.296655655E0,-2.540964365E0,8.382034302E-1
1.391093908E1,-4.190986633E0,-2.023620129E0,5.501985550E-1
1.392885808E1,-2.781385899E0,-1.027215362E0,-2.277374268E-1
1.394093308E1,-1.580544949E0,-3.727362156E-1,-5.526790619E-1
1.395142908E1,-5.568807721E-1,1.543006897E-1,-7.790393829E-1
1.396094808E1,2.219781876E-1,4.262976646E-1,-9.786291122E-1
1.397091208E1,7.709130645E-1,5.379865170E-1,-1.015889168E0
1.398091708E1,9.709928036E-1,5.202510357E-1,-1.125631332E0
1.399091708E1,8.183702230E-1,5.523710251E-1,-1.340580940E0
1.400193908E1,2.857125998E-1,7.225265503E-1,-1.511507034E0
1.401120608E1,2.725887299E-1,7.287566662E-1,-1.514111519E0
1.402102108E1,1.092144847E-1,6.936182976E-1,-1.585460186E0
1.403096108E1,9.563970566E-2,6.182343960E-1,-1.609120369E0
1.404091808E1,2.115366161E-1,4.879701138E-1,-1.774105072E0
1.405094708E1,7.741219997E-1,2.060475349E-1,-1.860628605E0
1.406090708E1,1.097687125E0,-5.470776558E-2,-2.036220551E0
1.407168508E1,1.243257999E0,-2.763371468E-1,-2.255108356E0
1.408093308E1,1.271127462E0,-3.753724098E-1,-2.477896214E0
1.409106708E1,1.241441965E0,-4.702389240E-1,-2.696353436E0
1.410092008E1,1.194508314E0,-5.796537399E-1,-2.872715950E0
1.411097008E1,1.124001026E0,-6.627376080E-1,-2.901661396E0
1.412131708E1,9.438219666E-1,-6.672415733E-1,-2.388421535E0
1.413097908E1,6.433206797E-1,-5.335824490E-1,-1.481765270E0
1.414115508E1,2.640363574E-1,-3.134062290E-1,-7.118558884E-1
1.415092408E1,-1.291583478E-1,-2.222943306E-2,-1.970195770E-1
1.416164308E1,-6.100845933E-1,2.448446751E-1,3.943681717E-1
1.417096908E1,-1.080311418E0,4.251711369E-1,8.708963394E-1
1.418110608E1,-1.380506992E0,6.531195641E-1,1.124027252E0
1.419122708E1,-1.253981113E0,8.467214108E-1,1.016025543E0
1.420107008E1,-5.311401486E-1,7.777485847E-1,8.417501450E-1
1.421094208E1,7.397427559E-1,4.928016663E-1,9.870080948E-1
1.422091708E1,1.883690834E0,5.822062492E-1,1.738629341E0
1.423093608E1,2.750588417E0,1.023418427E0,1.893014908E0
1.424154608E1,3.542862177E0,1.151773691E0,1.730271339E0
1.425091208E1,4.051728249E0,8.575041294E-1,2.384806633E0
1.426101108E1,3.806174040E0,4.929211140E-1,3.504651070E0
1.427090408E1,2.861491919E0,3.077421188E-1,4.248289108E0
1.428100308E1,1.369686842E0,3.458664417E-1,4.591555595E0
1.429098008E1,-1.592118591E-1,5.248837471E-1,4.225289345E0
1.430108508E1,-1.397585988E0,8.395607471E-1,3.412934303E0
1.431145308E1,-2.178072929E0,1.204244614E0,2.492752075E0
1.432092008E1,-2.277562857E0,1.434866667E0,1.695205688E0
1.433095808E1,-1.773160815E0,1.396473408E0,1.036828995E0
1.434091508E1,-1.020651579E0,1.308378696E0,4.228134155E-1
1.435091608E1,-3.228385150E-1,1.559191942E0,-2.709264755E-1
1.436156308E1,2.133689225E-1,1.729519606E0,-1.030976295E0
1.437139208E1,6.376022696E-1,1.676918983E0,-1.559742928E0
1.438173208E1,8.815730214E-1,1.581024885E0,-1.972815037E0
1.439095708E1,9.195487499E-1,1.474916220E0,-2.903337002E0
1.440104308E1,7.798632383E-1,1.414069414E0,-4.048838139E0
1.441402408E1,5.314106941E-1,1.323370934E0,-4.826755047E0
1.443096408E1,1.677951217E-1,7.652990818E-1,-4.680793762E0
1.444099408E1,-4.907965660E-1,6.761667728E-1,-3.735344410E0
1.445092608E1,-9.588171840E-1,5.820808411E-1,-3.174645901E0
1.446099008E1,-1.318322420E0,4.544279575E-1,-2.278097630E0
1.447100308E1,-1.528353930E0,2.441496849E-1,-1.185606003E0
1.448094808E1,-1.826809287E0,2.246046066E-2,-5.338182449E-1
1.449104808E1,-2.168203831E0,-8.851909637E-2,-1.659297943E-2
1.450105308E1,-2.431696892E0,-1.928701401E-1,5.405521393E-1
1.451089708E1,-2.479661703E0,-3.496332169E-1,9.904556274E-1
1.452098108E1,-2.276193857E0,-5.237901211E-1,1.380461693E0
1.453137908E1,-9.956442118E-1,-5.957117081E-1,1.835475922E0
1.454097508E1,-4.337307215E-1,-6.849300861E-1,2.150733948E0
1.455087508E1,2.105837464E-1,-7.321631908E-1,2.422279358E0
1.456096808E1,8.718369007E-1,-7.830519676E-1,2.576473236E0
1.457140108E1,1.701952696E0,-9.171237946E-1,2.537445068E0
1.458101208E1,1.738189697E0,-9.966742992E-1,2.432455063E0
1.459095308E1,1.445817232E0,-1.079504490E0,2.230243683E0
1.460086808E1,9.090722799E-1,-1.018847227E0,2.181931496E0
1.461108508E1,4.904143214E-1,-9.141798019E-1,2.077568054E0
1.462099408E1,4.118127227E-1,-8.488481045E-1,2.082104683E0
1.463129408E1,7.045124173E-1,-7.228608131E-1,2.106121063E0
1.464111708E1,1.196067333E0,-5.844786167E-1,2.294354439E0
1.465088908E1,1.628730536E0,-3.735322952E-1,2.635660172E0
1.466102708E1,1.989098072E0,-1.232063770E-1,2.891045570E0
1.467089108E1,2.221292257E0,-7.353305817E-3,3.083415031E0
1.468089708E1,2.251921177E0,2.477526665E-2,3.157919884E0
1.469135108E1,2.091863394E0,-6.870031357E-3,2.710234642E0
1.470094408E1,1.857859612E0,6.186962128E-4,1.885602951E0
1.471093208E1,1.522088766E0,1.387147903E-1,9.167423248E-1
1.472089708E1,1.128697991E0,4.188816547E-1,3.171062469E-2
1.473094408E1,8.940358162E-1,7.912943363E-1,-7.420949936E-1
1.474088408E1,9.125278592E-1,1.086541653E0,-1.418900490E0
1.475088108E1,1.082813144E0,1.200865030E0,-2.062964916E0
1.476088008E1,1.224763393E0,1.320837498E0,-2.531435013E0
1.477103408E1,1.328397155E0,1.481282234E0,-2.816025734E0
1.478094108E1,1.398109436E0,1.540096045E0,-3.171103001E0
1.479110508E1,1.447128296E0,1.452043295E0,-3.623059273E0
1.480121708E1,1.459458590E0,1.309767485E0,-3.919108868E0
1.481095208E1,1.458487153E0,1.133787632E0,-4.044130325E0
1.482116908E1,1.537021041E0,9.336557388E-1,-4.085787773E0
1.483093208E1,1.622226834E0,8.117206097E-1,-4.026807785E0
1.484092508E1,1.610828400E0,7.859523296E-1,-3.991265297E0
1.485154308E1,1.577285171E0,8.896327019E-1,-3.866265297E0
1.486108308E1,1.576745868E0,9.229667187E-1,-3.637755394E0
1.487095308E1,1.594444752E0,8.378472328E-1,-3.416969299E0
1.488092908E1,1.410605669E0,8.088929653E-1,-3.098232746E0
1.489111408E1,1.090116978E0,8.643004894E-1,-2.712969780E0
1.490107008E1,8.928862810E-1,7.885944843E-1,-2.243529797E0
1.491093408E1,8.941959739E-1,6.236376762E-1,-1.642972946E0
1.492092708E1,1.001723528E0,4.504151344E-1,-1.168773651E0
1.493099808E1,1.161647797E0,3.688538074E-1,-7.257041931E-1
1.494103408E1,1.430113554E0,2.933185101E-1,-3.022718430E-1
1.495163508E1,1.674291611E0,1.436798573E-1,4.206275940E-2
1.496094308E1,1.846802235E0,-7.931971550E-2,3.380661011E-1
1.497105808E1,1.835264683E0,-2.225244045E-1,7.384634018E-1
1.498179008E1,1.642804623E0,-2.881071568E-1,1.068285942E0
1.499097208E1,1.309155941E0,-2.919785976E-1,1.405668259E0
1.500184108E1,4.557355642E-1,6.813280582E-1,2.337777138E0
1.501107408E1,1.594886184E-1,7.980537415E-2,1.920260429E0
1.502099808E1,8.404365778E-1,-8.893493414E-1,1.637454987E0
1.503163008E1,1.199129581E0,-1.177194357E0,1.801131248E0
1.504110608E1,1.115493894E0,-1.001220465E0,2.082084656E0
1.505201008E1,8.884360790E-1,-6.789084673E-1,3.280125618E0
1.506108108E1,9.208964705E-1,-5.444471836E-1,3.278222084E0
1.507122708E1,1.169434786E0,-6.044979095E-1,4.171338081E0
1.508090308E1,1.389695644E0,-6.240996122E-1,4.695205688E0
1.509096108E1,1.475376844E0,-5.010215044E-1,4.781585693E0
1.510101708E1,1.580643177E0,-3.550060987E-1,4.519517899E0
1.511113908E1,1.854356408E0,-2.836477757E-2,4.057641029E0
1.512109708E1,1.854781389E0,3.208819628E-1,4.129421234E0
1.513098208E1,1.707039595E0,8.782129288E-1,3.994079590E0
1.514095908E1,1.520170689E0,1.385074615E0,3.675997734E0
1.515105708E1,1.360577106E0,1.520787835E0,3.570283890E0
1.516103708E1,1.168583393E0,1.473194838E0,3.958643913E0
1.517173108E1,8.085876703E-1,1.570073724E0,4.185159683E0
1.518102408E1,4.202105403E-1,1.837205768E0,3.915625572E0
1.519111108E1,1.930269599E-1,2.065985680E0,3.554642677E0
1.520099408E1,1.812297106E-1,2.283638000E0,3.317336082E0
1.521158708E1,3.704938293E-1,2.406735420E0,2.794212341E0
1.522148608E1,6.905361414E-1,2.440797329E0,2.006832123E0
1.523128708E1,1.068955898E0,2.479962826E0,1.116493225E0
1.524089108E1,1.277313232E0,2.407126427E0,3.369579315E-1
1.525095408E1,1.215364933E0,2.372399330E0,-3.805904388E-1
1.526104908E1,9.481315017E-1,2.446786404E0,-9.720640182E-1
1.527296508E1,6.199408770E-1,2.480804443E0,-1.330207825E0
1.528108408E1,1.787625551E-1,2.375854492E0,-1.734575272E0
1.529096608E1,-2.513431311E-1,2.254607916E0,-2.031249046E0
1.530107208E1,-5.129696131E-1,2.123919964E0,-2.053076267E0
1.531104108E1,-4.703280926E-1,1.848058581E0,-2.348969460E0
1.532305508E1,-2.740123272E-1,1.530515075E0,-2.729500771E0
1.534097108E1,2.744930983E-1,1.529067039E0,-2.748038292E0
1.535090408E1,5.559035540E-1,1.592727184E0,-2.241237640E0
1.536109408E1,7.967145443E-1,1.513460398E0,-1.314317703E0
1.537210808E1,1.011806965E0,1.171171665E0,-2.943000793E-1
1.538123908E1,1.067743063E0,1.368332982E0,1.063441277E0
1.539092908E1,9.949412346E-1,6.967624426E-1,1.517193794E0
1.540093908E1,1.438726425E0,-1.728234291E-1,1.081683159E0
1.541117808E1,1.673277140E0,3.565753698E-1,2.787591934E0
1.542090308E1,1.927665710E0,5.771470070E-2,2.646706581E0
1.543088308E1,1.926836252E0,-3.542315960E-1,2.132836342E0
1.544093408E1,1.920275688E0,-9.474515915E-2,2.665323257E0
1.545095208E1,1.757535100E0,4.200851917E-2,2.362608910E0
1.546090308E1,1.650481105E0,-2.117565870E-1,1.679654121E0
1.547085908E1,1.509868026E0,6.089091301E-2,1.650948524E0
1.548093408E1,1.208591938E0,2.445840836E-1,1.054986000E0
1.549161208E1,1.034679413E0,5.559751987E-1,1.170548439E0
1.550119908E1,1.187724590E0,5.681517124E-1,5.468626022E-1
1.551107808E1,2.065794945E0,2.108299732E-1,4.152746201E-1
1.552090908E1,3.215266466E0,-7.186106443E-1,6.139383316E-1
1.553089908E1,3.903759956E0,-1.658637762E0,5.667209625E-1
1.554200608E1,3.129899740E0,-2.091958284E0,8.261194229E-1
1.555088008E1,1.573800802E0,-1.820291042E0,1.228473663E0
1.556118508E1,3.865633011E-1,-1.561970592E0,1.222606659E0
1.557091008E1,-1.946268082E-1,-1.323952317E0,1.195241928E0
1.558106508E1,-3.919990063E-1,-7.525169849E-1,1.315255165E0
1.559103208E1,-1.332623959E-1,-2.456865311E-1,7.969560623E-1
1.560093208E1,5.276129246E-1,2.299547195E-2,1.763229370E-1
1.561091508E1,1.394466639E0,2.867841721E-2,-5.097646713E-1
1.562090808E1,2.072124720E0,1.711559296E-2,-1.306542397E0
1.563087308E1,2.361688852E0,1.131377220E-1,-1.704910755E0
1.564106508E1,2.410256863E0,2.261662483E-1,-1.748509884E0
1.565096208E1,2.390051365E0,1.389222145E-1,-8.485274315E-1
1.566092308E1,2.298227072E0,1.734948158E-2,-2.558975220E-1
1.567717508E1,2.020230293E0,-4.454135895E-2,3.605747223E-1
1.569095008E1,9.366891384E-1,-3.185629845E-1,1.724392891E0
1.570096608E1,3.090023994E-1,-2.519645691E-1,2.091924667E0
1.571095308E1,-6.252908707E-2,-1.012785435E-1,1.784178734E0
1.572270808E1,-1.272697449E-1,-1.320314407E-1,1.367778778E0
1.573098408E1,6.527233124E-2,-1.740735769E-1,7.389249802E-1
1.574103908E1,3.830039501E-1,-1.483659744E-1,1.295070648E-1
1.575153508E1,6.586152315E-1,3.416538239E-4,-3.541755676E-1
1.576092408E1,8.769472837E-1,2.566722631E-1,-9.581041336E-1
1.577099208E1,1.223218918E0,3.732652664E-1,-1.733649254E0
1.578094408E1,1.460009336E0,3.800184727E-1,-2.252989769E0
1.579097108E1,1.498948097E0,4.032549858E-1,-2.514719009E0
1.580104008E1,1.425431728E0,3.961615562E-1,-2.781411171E0
1.581110808E1,1.304073691E0,3.313283920E-1,-3.091303825E0
1.582110308E1,1.153606892E0,2.591812611E-1,-3.464203358E0
1.583104708E1,1.029660583E0,1.675376892E-1,-3.822416306E0
1.584093208E1,8.535223007E-1,9.412908554E-2,-4.061163425E0
1.585187808E1,6.456135511E-1,1.241889000E-1,-4.150316715E0
1.586089308E1,4.370847940E-1,1.802403927E-1,-4.092257023E0
1.587086808E1,2.889268398E-1,1.948788166E-1,-4.013969898E0
1.588116808E1,2.273555994E-1,1.855413914E-1,-3.960812092E0
1.589094608E1,1.524202824E-1,2.116312981E-1,-3.890372753E0
1.590130008E1,-7.989072800E-2,2.192190886E-1,-3.487453938E0
1.591095008E1,-3.569774628E-1,1.922839880E-1,-2.976551056E0
1.592127608E1,-5.658922195E-1,5.259525776E-2,-2.382075787E0
1.593097808E1,-6.773469448E-1,-1.381735802E-1,-1.772263527E0
1.594089908E1,-7.813540697E-1,-2.881228924E-1,-1.059911728E0
1.595123508E1,-9.104309082E-1,-3.562803268E-1,-3.672142029E-1
1.596094708E1,-1.108011484E0,-3.360694051E-1,2.678136826E-1
1.597090508E1,-1.328296781E0,-2.565898895E-1,7.455358505E-1
1.598126108E1,-1.576161623E0,-1.753389835E-1,1.089452744E0
1.599088108E1,-1.857343316E0,-7.068181038E-2,1.379137039E0
1.600121508E1,-2.256403446E0,8.672326803E-2,1.693862915E0
1.601095308E1,-2.565038681E0,2.508773804E-1,1.941541672E0
1.602107908E1,-2.762577057E0,4.096229076E-1,2.099793434E0
1.603093008E1,-2.795021057E0,5.526680946E-1,2.218779564E0
1.604099108E1,-2.675238609E0,6.454046369E-1,2.313889503E0
1.605130608E1,-2.430486917E0,7.625654936E-1,2.298209190E0
1.606089708E1,-2.009587765E0,7.348417044E-1,2.373281479E0
1.607089508E1,-1.321193457E0,5.074788332E-1,2.522124290E0
1.608113908E1,-4.511965513E-1,1.775096953E-1,2.826657295E0
1.609191508E1,4.162104130E-1,-2.064664960E-1,3.114854813E0
1.610136108E1,1.023705721E0,-6.026943922E-1,3.451501846E0
1.611107208E1,1.323349714E0,-9.457963705E-1,3.963839531E0
1.612113108E1,1.257265806E0,-1.137866259E0,4.470897675E0
1.613146908E1,8.992727995E-1,-1.106345415E0,4.889603615E0
1.614094008E1,4.074734449E-1,-1.147188902E0,5.245938301E0
1.615095508E1,-6.804192066E-2,-1.032467842E0,5.476937294E0
1.616087808E1,-3.620014191E-1,-8.243916035E-1,5.443249702E0
1.617112108E1,-2.183668613E-1,-5.154158473E-1,5.137764931E0
1.618110108E1,1.390893698E0,1.314591467E-1,3.936223030E0
1.619089108E1,2.433840275E0,5.534152985E-1,3.245552063E0
1.620089408E1,3.451737881E0,1.035590172E0,2.434776306E0
1.621113508E1,4.551580906E0,1.513785958E0,1.723637581E0
1.622091408E1,5.483762264E0,1.991169214E0,1.180374146E0
1.623109908E1,6.055648327E0,2.315981627E0,9.331560135E-1
1.624120908E1,6.008331776E0,2.876354694E0,5.234327316E-1
1.625102108E1,5.862704754E0,2.821509123E0,3.451347351E-1
1.626114908E1,5.554235458E0,2.566848993E0,3.231821060E-1
1.627096908E1,4.845591068E0,2.518569946E0,1.596260071E-2
1.628093008E1,3.934827805E0,2.559430599E0,-4.993476868E-1
1.629143808E1,3.220836163E0,2.361501455E0,-6.816043854E-1
1.630145308E1,2.791717768E0,2.176840544E0,-7.712726593E-1
1.631095908E1,2.333094120E0,2.055556536E0,-1.618026733E0
1.632096008E1,1.927295566E0,1.879884243E0,-2.477492332E0
1.633096808E1,1.537619948E0,1.749702573E0,-3.111329079E0
1.634108108E1,1.228001595E0,1.625241160E0,-3.684099197E0
1.635105808E1,9.406909943E-1,1.478660226E0,-4.223079681E0
1.636164208E1,6.218495965E-1,1.369158506E0,-4.536449909E0
1.637091708E1,3.353310823E-1,1.271874070E0,-4.808902264E0
1.638159208E1,2.317547798E-2,1.172200561E0,-4.929663658E0
1.639099408E1,-3.014949560E-1,1.052505732E0,-4.747682095E0
1.640092708E1,-6.440464258E-1,9.472914338E-1,-4.366988182E0
1.641107208E1,-9.211982489E-1,7.679839730E-1,-3.760461330E0
1.642090708E1,-1.101625681E0,5.625656843E-1,-3.112436771E0
1.643153608E1,-1.210230350E0,4.004196525E-1,-2.484549046E0
1.644097608E1,-1.230277777E0,3.238844872E-1,-1.837802887E0
1.645100008E1,-1.196618080E0,2.417587638E-1,-1.295958519E0
1.646102408E1,-1.202500820E0,1.430521011E-1,-8.718080521E-1
1.647088308E1,-1.289889336E0,1.376520097E-2,-6.252050400E-1
1.648101608E1,-1.649672627E0,1.533405930E-1,-4.529428482E-1
1.649102008E1,-2.144552708E0,4.451792836E-1,-2.180852890E-1
1.650133308E1,-2.638671875E0,8.440227509E-1,1.204490662E-1
1.651091208E1,-2.995092392E0,1.227958560E0,5.725460052E-1
1.652087208E1,-3.217054367E0,1.581455588E0,9.056549072E-1
1.653092908E1,-3.203350067E0,1.842444777E0,9.047346115E-1
1.654134208E1,-2.913542271E0,1.979479909E0,6.040468216E-1
1.655089108E1,-2.400413513E0,2.017288446E0,5.897712708E-2
1.656086808E1,-1.974440455E0,2.076774597E0,-4.026832581E-1
1.657125808E1,-1.418716788E0,2.081993103E0,-7.491188049E-1
1.658097008E1,-9.220608473E-1,2.132729769E0,-9.111919403E-1
1.659093808E1,-5.224826336E-1,2.187549829E0,-8.916215897E-1
1.660087308E1,-2.096647024E-1,2.178958654E0,-6.359462738E-1
1.661094308E1,-2.328002453E-2,2.135094643E0,-1.707019806E-1
1.662093608E1,-4.389286041E-4,2.151828766E0,4.634618759E-1
1.663105908E1,-6.021749973E-2,2.223671198E0,1.071014404E0
1.664093508E1,-1.785439253E-1,2.283264160E0,1.637453079E0
1.665146608E1,-3.120166063E-1,2.438096523E0,2.120326996E0
1.666103608E1,-4.773384333E-1,2.707852364E0,2.565250397E0
1.667096808E1,-4.297484159E-1,3.051560163E0,2.810564995E0
1.668095208E1,-2.549911737E-1,3.204300165E0,3.058605194E0
1.669095808E1,-2.471754551E-1,3.318190098E0,3.392542839E0
1.670145708E1,3.559824228E-1,2.928068638E0,4.315633774E0
1.671094608E1,3.829283714E-1,2.978751421E0,4.321355820E0
1.672256908E1,1.803597689E0,1.385371327E0,5.387684822E0
1.673103208E1,1.892750859E0,6.832722425E-1,5.558974266E0
1.674106208E1,1.405837059E0,2.458629906E-1,5.310709000E0
1.675095908E1,7.735251784E-1,-3.055691719E-2,4.671811104E0
1.676089608E1,4.373567104E-1,-3.786682189E-1,3.741012573E0
1.677309108E1,2.356654406E-1,-6.901414394E-1,2.591794014E0
1.679099108E1,-3.081610203E-1,-6.420793533E-1,6.352853775E-1
1.680107608E1,-4.817801714E-1,-5.648583174E-1,-6.089496613E-2
1.681096808E1,-4.987610579E-1,-5.961271524E-1,-6.548652649E-1
1.682329008E1,-3.826680183E-1,-6.580753326E-1,-1.376265526E0
1.684114308E1,3.522199392E-1,-1.041086435E0,-2.318529129E0
1.685089908E1,7.609170675E-1,-1.224564910E0,-2.601087093E0
1.686101408E1,1.149100184E0,-1.250670552E0,-2.581439495E0
1.687217808E1,1.540088058E0,-1.327734232E0,-2.307147980E0
1.688094408E1,1.922707081E0,-1.525815248E0,-1.810582161E0
1.689102008E1,2.151292324E0,-1.786006451E0,-1.101448059E0
1.690101008E1,2.140264273E0,-2.116981268E0,-3.248243332E-1
1.691094908E1,2.031910419E0,-2.467792511E0,2.437410355E-1
1.692123908E1,1.693078518E0,-2.695128918E0,6.615066528E-1
1.693091308E1,1.076142907E0,-2.713740826E0,9.334478378E-1
1.694115308E1,3.130728602E-1,-2.591937065E0,1.039608955E0
1.695096108E1,-3.452135921E-1,-2.520296335E0,8.965444565E-1
1.696128808E1,-8.572277427E-1,-2.407903671E0,5.783548355E-1
1.697095308E1,-1.163428307E0,-2.197564602E0,1.577472687E-1
1.698120208E1,-1.194791079E0,-1.970553517E0,-2.735090256E-1
1.699205008E1,-1.029758334E0,-1.684621096E0,-6.717109680E-1
1.700091608E1,-6.607497931E-1,-1.443637371E0,-1.226532936E0
1.701097008E1,-2.702138424E-1,-1.267862082E0,-1.849850178E0
1.702089808E1,1.490604877E-1,-1.130881548E0,-2.473248959E0
1.703098608E1,5.768978000E-1,-9.926866293E-1,-2.965642929E0
1.704106408E1,9.463929534E-1,-8.324906826E-1,-3.324470520E0
1.705096308E1,1.284693003E0,-6.860202551E-1,-3.512989998E0
1.706095908E1,1.566245675E0,-5.792714953E-1,-3.576472282E0
1.707093908E1,1.784715891E0,-4.246893525E-1,-3.555593491E0
1.708104808E1,1.947627306E0,-3.088276982E-1,-3.473074913E0
1.709095908E1,2.105731964E0,-2.243549824E-1,-3.381499290E0
1.710108208E1,2.258023262E0,-2.137528062E-1,-3.328689098E0
1.711144608E1,2.410304785E0,-2.598246932E-1,-3.297836304E0
1.712094808E1,2.447924852E0,-2.706049085E-1,-3.302189827E0
1.713096308E1,2.381032944E0,-2.258959413E-1,-3.284188271E0
1.714091108E1,2.184088469E0,-1.979255676E-1,-3.260585308E0
1.715093608E1,1.876144171E0,-1.595024467E-1,-3.238413334E0
1.716202108E1,1.551318169E0,-1.193832755E-1,-3.055845261E0
1.717097108E1,1.288186073E0,-9.418994188E-2,-2.714029312E0
1.718103708E1,1.167998672E0,-7.719743252E-2,-2.380658627E0
1.719103308E1,1.196484447E0,-5.156981945E-2,-2.030512333E0
1.720094308E1,1.270173192E0,-5.155360699E-2,-1.719723701E0
1.721102908E1,1.374198675E0,-1.283444762E-1,-1.553705215E0
1.722093308E1,1.396644831E0,-2.133058906E-1,-1.546791077E0
1.723122608E1,1.345921516E0,-2.446404099E-1,-1.594244957E0
1.724096408E1,1.204702497E0,-2.631547451E-1,-1.639935493E0
1.725099708E1,1.018334985E0,-2.924095392E-1,-1.637316704E0
1.726100308E1,5.924084783E-1,-3.673007488E-1,-1.465682983E0
1.727091408E1,3.802943826E-1,-3.871621788E-1,-1.146029472E0
1.728213008E1,2.119338512E-1,-3.947423697E-1,-7.523689270E-1
1.729090708E1,-4.139012098E-2,-3.979352117E-1,-3.795661926E-1
1.730117508E1,-3.786059618E-1,-4.055353701E-1,1.716375351E-1
1.731409808E1,-7.676197886E-1,-3.737315834E-1,8.526897430E-1
1.733094908E1,-1.593897462E0,-5.842846632E-1,2.057376862E0
1.734091108E1,-2.113104820E0,-5.799328089E-1,2.403645515E0
1.735091708E1,-2.620596647E0,-5.338951945E-1,2.539855003E0
1.736127008E1,-3.031751394E0,-4.162931144E-1,2.228875160E0
1.737110008E1,-3.326953411E0,-2.727150619E-1,1.982462883E0
1.738109408E1,-3.377845287E0,-1.439146399E-1,1.392064095E0
1.739109208E1,-3.160552979E0,4.207707942E-2,5.280694962E-1
1.740093708E1,-2.888615847E0,2.936757505E-1,-1.079130173E-1
1.741099608E1,-2.472769499E0,3.942059278E-1,-7.013502121E-1
1.742139308E1,-2.064702988E0,3.974396288E-1,-1.214936256E0
1.743090808E1,-1.857766867E0,4.381104410E-1,-1.439085007E0
1.744093708E1,-1.819710851E0,5.822060704E-1,-1.277972221E0
1.745098308E1,-1.898043394E0,8.381356001E-1,-6.936798096E-1
1.746115408E1,-1.824882269E0,9.447878599E-1,-2.875337601E-1
1.747088908E1,-1.428510547E0,5.335723758E-1,-1.840944290E-1
1.748118008E1,-1.093446970E0,3.504533172E-1,-8.025169373E-2
1.749158508E1,-1.033355832E0,8.445585370E-1,3.806505203E-1
1.750088608E1,-7.896670103E-1,1.164775968E0,1.534592628E0
1.751089408E1,-1.623347104E-1,5.642601252E-1,3.613374710E0
1.752089208E1,5.783341825E-2,-9.585530311E-2,5.831051826E0
1.753097008E1,-2.460853457E-1,-2.165423483E-1,8.087610245E0
1.754098508E1,-8.075374365E-1,2.450850904E-1,8.528960228E0
1.755089408E1,-1.338255525E0,8.196828365E-1,8.570835114E0
1.756102108E1,-1.440043688E0,1.407819510E0,7.978417397E0
1.757092108E1,-1.127990484E0,1.978007913E0,6.732501030E0
1.758092708E1,-5.020216703E-1,2.384163380E0,4.968786240E0
1.759091108E1,3.539220691E-1,2.625280380E0,3.393877029E0
1.760096908E1,1.043679953E0,2.894347191E0,1.794334412E0
1.761150408E1,1.644993544E0,3.027102232E0,2.250146866E-1
1.762094408E1,2.102715492E0,3.184992790E0,-9.796438217E-1
1.763104608E1,2.224298000E0,3.374727964E0,-1.832371235E0
1.764100608E1,2.053493023E0,3.489856243E0,-3.026118755E0
1.765115308E1,1.673713088E0,3.387790680E0,-2.997662067E0
1.766105508E1,1.098741651E0,3.233036280E0,-2.876248837E0
1.767092708E1,3.789588213E-1,3.074557304E0,-2.966968060E0
1.768112008E1,-2.117784917E-1,2.913302660E0,-2.786244869E0
1.769095608E1,-7.346482873E-1,2.719119072E0,-2.703652859E0
1.770112908E1,-1.129663348E0,2.621698141E0,-2.718124866E0
1.771115608E1,-1.389920354E0,2.513154030E0,-2.766262531E0
1.772097008E1,-1.456906199E0,2.387212276E0,-2.694821835E0
1.773100708E1,-1.297851562E0,2.266026497E0,-2.885651588E0
1.774095908E1,-1.046121240E0,2.163821459E0,-2.900499344E0
1.775096608E1,-8.398873210E-1,2.032580614E0,-2.829010010E0
1.776466808E1,-5.827357173E-1,1.713245869E0,-2.895039558E0
1.778100508E1,-5.958217382E-1,1.468951106E0,-2.967658520E0
1.779211908E1,-8.393310308E-1,1.014526844E0,-2.956182480E0
1.780091208E1,-8.792277575E-1,7.307459712E-1,-2.886888027E0
1.781107808E1,-9.180829525E-1,4.922887683E-1,-2.731091976E0
1.782094108E1,-9.586138725E-1,3.449915051E-1,-2.348951817E0
1.783095308E1,-9.588316679E-1,3.064910173E-1,-1.610277176E0
1.784105708E1,-7.941595316E-1,1.088835597E-1,-9.223098755E-1
1.785093208E1,-5.875021219E-1,-2.090740651E-1,-5.687608719E-1
1.786094908E1,-3.962216973E-1,-5.158690810E-1,-4.403266907E-1
1.787101608E1,-1.851250231E-1,-7.211644650E-1,-2.637195587E-1
1.788095008E1,1.741738915E-1,-8.837811947E-1,-1.763277054E-1
1.789132608E1,6.742410660E-1,-1.034024358E0,-5.606555939E-2
1.790095408E1,1.152465343E0,-1.070251226E0,1.196289062E-1
1.791094208E1,1.638791800E0,-1.112487793E0,3.248863220E-1
1.792088808E1,2.143605947E0,-1.219989777E0,5.460309982E-1
1.793092708E1,2.683379889E0,-1.472280025E0,8.167133331E-1
1.794127208E1,3.418617010E0,-2.009665966E0,1.320877075E0
1.795095708E1,4.105858803E0,-2.665110111E0,2.013819695E0
1.796095408E1,4.489162922E0,-3.039476395E0,2.765810966E0
1.797086808E1,4.594208717E0,-3.134221554E0,3.620985031E0
1.798101808E1,4.278785706E0,-3.284595728E0,4.457764626E0
1.799089808E1,3.122291088E0,-3.043324947E0,5.300038338E0
1.800110908E1,1.068272114E0,-2.384751081E0,5.848877907E0
1.801148708E1,-1.319802284E0,-1.522180676E0,5.998013496E0
1.802089308E1,-3.237811565E0,-6.029260159E-1,5.862394333E0
1.803093908E1,-4.388843536E0,4.053005278E-1,5.399831772E0
1.804088408E1,-4.489544392E0,1.106753349E0,4.293915749E0
1.805098308E1,-3.601233006E0,1.350856781E0,3.238527298E0
1.806165808E1,-2.181686401E0,1.354348183E0,2.510060310E0
1.807088308E1,-1.068209767E0,1.699310541E0,1.451123238E0
1.808123808E1,-2.013378441E-1,2.146686316E0,5.282592773E-2
1.809096608E1,5.024567842E-1,2.328179359E0,-1.018973351E0
1.810100708E1,9.714680910E-1,2.273407936E0,-1.714344978E0
1.811100308E1,1.123099566E0,2.138845921E0,-2.092633724E0
1.812094708E1,9.597629905E-1,2.036522627E0,-2.036775112E0
1.813144608E1,7.460727096E-1,1.928779244E0,-1.669147491E0
1.814090708E1,4.551542997E-1,1.813885450E0,-1.196673393E0
1.815104708E1,9.148927778E-2,1.870126486E0,-8.676147461E-1
1.816088708E1,-2.063374817E-1,1.922395825E0,-6.881370544E-1
1.817099008E1,-4.253509045E-1,1.747990012E0,-3.926706314E-1
1.818225908E1,-5.661180615E-1,1.515266418E0,-2.891635895E-1
1.819092508E1,-6.075005531E-1,1.282970786E0,-4.114809036E-1
1.820091008E1,-6.413384080E-1,9.277380109E-1,-6.260023117E-1
1.821394208E1,-4.934341908E-1,5.128269792E-1,-1.375249863E0
1.823092108E1,-3.678398430E-1,2.342355996E-1,-1.785064697E0
1.824088308E1,-2.446710616E-1,1.055675447E-1,-2.069493294E0
1.825097808E1,-1.394983977E-1,-8.418853581E-2,-2.186700821E0
1.826154608E1,-4.630004615E-2,-3.821305931E-1,-2.097434044E0
1.827086708E1,-1.369996816E-1,-5.278594494E-1,-1.854577541E0
1.828127508E1,-2.620282471E-1,-6.384294629E-1,-1.415940285E0
1.829234208E1,-4.564558566E-1,-9.906888008E-1,-7.342710495E-1
1.830095808E1,-3.759784400E-1,-1.078080893E0,-7.269153595E-1
1.831089508E1,-6.520791054E-1,-9.984690547E-1,-5.674419403E-1
1.832093408E1,-8.422834873E-1,-8.540425897E-1,-3.125667572E-1
1.833142808E1,-1.019250154E0,-4.773082137E-1,-2.146968842E-1
1.834115508E1,-1.291301727E0,-1.921485662E-1,-3.712558746E-1
1.835093608E1,-1.313512325E0,-1.688897610E-2,-5.491952896E-1
1.836089408E1,-5.444350839E-1,-4.169865847E-1,-5.481367111E-1
1.837095608E1,1.146398306E0,-1.474415064E0,-3.549022675E-1
1.838198408E1,2.728247166E0,-1.916294813E0,2.243328094E-2
1.839093808E1,3.652247429E0,-1.614927292E0,4.240207672E-1
1.840123408E1,3.984597683E0,-1.989207983E0,2.226752281E0
1.841094308E1,3.166502714E0,-2.679412603E0,5.800100327E0
1.842092008E1,1.003623724E0,-2.712907791E0,8.935095787E0
1.843089608E1,-1.900435209E0,-1.826709032E0,1.020511532E1
1.844115308E1,-4.582921028E0,-2.538589835E-1,9.656215668E0
1.845153308E1,-5.683934212E0,1.359753966E0,7.872315407E0
1.846121908E1,-4.224328995E0,1.404335260E0,6.141657829E0
1.847091408E1,-1.879195571E0,1.459135413E0,4.585052490E0
1.848091308E1,1.511757374E-1,2.333679438E0,3.207995415E0
1.849094108E1,1.985472918E0,3.326118708E0,2.852800369E0
1.850115008E1,3.308375359E0,3.936627865E0,1.645465851E0
1.851093008E1,4.246737480E0,4.311017513E0,-6.746435165E-1
1.852090808E1,4.711085796E0,4.334408760E0,-2.730162144E0
1.853090308E1,4.356059551E0,3.994108677E0,-4.121500969E0
1.854113708E1,3.460303545E0,3.590149641E0,-4.439443588E0
1.855091608E1,2.414623260E0,3.344340801E0,-4.269844532E0
1.856090808E1,1.555116296E0,3.177819729E0,-3.570994854E0
1.857133008E1,9.284154177E-1,2.970089674E0,-2.608837128E0
1.858093008E1,3.264490366E-1,2.824597359E0,-1.863945007E0
1.859092208E1,-1.508814096E-1,2.710255146E0,-1.403045654E0
1.860096908E1,-4.722522497E-1,2.599901915E0,-1.222329140E0
1.861097608E1,-5.708969831E-1,2.497575521E0,-1.224960327E0
1.862085908E1,-4.794927835E-1,2.388113499E0,-1.309750557E0
1.863091508E1,-2.018035650E-1,2.215854645E0,-1.437852859E0
1.864096508E1,1.717545986E-1,1.969860196E0,-1.809276581E0
1.865105108E1,4.910289049E-1,1.710307360E0,-2.379409313E0
1.866098608E1,6.676890850E-1,1.383232117E0,-2.913286209E0
1.867085408E1,7.715877891E-1,1.112454176E0,-3.320736885E0
1.868087608E1,7.113071680E-1,8.764915466E-1,-3.663845062E0
1.869092908E1,5.588029623E-1,6.384252310E-1,-3.605834484E0
1.870088608E1,4.487334490E-1,3.630223274E-1,-3.240849018E0
1.871092708E1,3.308532238E-1,6.511807442E-2,-2.753433704E0
1.872088708E1,2.238702774E-1,-1.826862097E-1,-2.183932304E0
1.873088308E1,2.118405104E-1,-3.976373076E-1,-1.621381283E0
1.874146308E1,2.331680059E-1,-7.129650116E-1,-1.311713219E0
1.875093508E1,1.839931011E-1,-9.350236654E-1,-9.518089294E-1
1.876091808E1,7.312035561E-2,-1.066048622E0,-6.769056320E-1
1.877094308E1,-8.077621460E-4,-1.119224668E0,-5.935401917E-1
1.878103808E1,4.369306564E-2,-1.120519996E0,-5.364046097E-1
1.879110308E1,2.006542683E-1,-1.155297279E0,-4.286088943E-1
1.880089008E1,7.313292027E-1,-1.470723867E0,-2.070255280E-1
1.881096608E1,1.600712299E0,-2.038020611E0,8.888244629E-3
1.882089408E1,2.431265354E0,-2.607833385E0,4.240674973E-1
1.883092108E1,2.950379848E0,-2.941373587E0,1.165745735E0
1.884265108E1,3.042735577E0,-3.581275940E0,4.550346375E0
1.885089808E1,2.909001350E0,-3.423555851E0,4.497164726E0
1.886198308E1,1.547444344E0,-4.570754051E0,6.381699562E0
1.887091008E1,-1.964347363E-1,-4.076325893E0,5.815195084E0
1.888101508E1,-1.775504947E0,-3.350780964E0,4.837837219E0
1.889105808E1,-2.681600094E0,-2.605645180E0,3.962729454E0
1.890096308E1,-2.850547552E0,-1.873345256E0,3.211601257E0
1.891190908E1,-2.529135227E0,-1.192502975E0,2.469361305E0
1.892087208E1,-1.841496944E0,-5.394777060E-1,1.526014328E0
1.893089208E1,-1.065419436E0,4.124003649E-2,5.146713257E-1
1.894090508E1,-3.445563316E-1,4.388840795E-1,-3.090133667E-1
1.895094408E1,1.579273939E-1,7.480521202E-1,-9.063777924E-1
1.896116008E1,3.814648390E-1,1.011282682E0,-1.281880379E0
1.897086508E1,3.999968767E-1,1.239795089E0,-1.398338318E0
1.898142608E1,2.428442240E-1,1.467572689E0,-1.275260925E0
1.899096108E1,2.832496166E-2,1.679299593E0,-9.335126877E-1
1.900124708E1,-1.758236885E-1,1.832195878E0,-4.831733704E-1
1.901091308E1,-3.556151390E-1,1.936856866E0,-6.857299805E-2
1.902094408E1,-4.697214365E-1,1.992124438E0,2.793054581E-1
1.903164708E1,-4.843862057E-1,1.990840197E0,4.805688858E-1
1.904111608E1,-4.192417860E-1,1.943483472E0,6.444110870E-1
1.905096508E1,-2.980414629E-1,1.902429819E0,6.602363586E-1
1.906484308E1,-2.198102474E-1,1.822773933E0,4.972686768E-1
1.908114508E1,5.433213711E-2,1.616790533E0,7.463455200E-2
1.909096308E1,1.322951317E-1,1.495023727E0,-1.411581039E-1
1.910093008E1,1.129264832E-1,1.369382381E0,-3.126411438E-1
1.911244308E1,1.158416271E-2,1.186003923E0,-4.316263199E-1
1.912147008E1,-1.092134714E-1,1.007742286E0,-5.868101120E-1
1.913123208E1,-1.331293583E-1,7.997246981E-1,-7.702703476E-1
1.914101308E1,-2.859592438E-2,5.434165001E-1,-1.015793800E0
1.915095708E1,1.557846069E-1,2.485447824E-1,-1.225520134E0
1.916101208E1,3.627936244E-1,1.558393240E-3,-1.422344208E0
1.917089808E1,5.329899788E-1,-2.734288275E-1,-1.540633202E0
1.918109608E1,5.118058920E-1,-4.895416796E-1,-1.465372086E0
1.919102508E1,3.025510311E-1,-5.625816584E-1,-1.253557205E0
1.920137008E1,4.834485054E-2,-6.832101941E-1,-9.919843674E-1
1.921104308E1,-2.974728942E-1,-8.079569936E-1,-6.953535080E-1
1.922102808E1,-6.738391519E-1,-8.644388914E-1,-4.736480713E-1
1.923159208E1,-8.993429542E-1,-9.129399061E-1,-3.036565781E-1
1.924113308E1,-9.572986364E-1,-1.033547521E0,-1.590089798E-1
1.925116908E1,-9.864079952E-1,-1.106617451E0,-2.842712402E-2
1.926117708E1,-9.528186321E-1,-1.047391057E0,4.101276398E-2
1.927100708E1,-8.805459738E-1,-7.864778042E-1,1.326465607E-1
1.928207108E1,-8.076422215E-1,-5.237016678E-1,2.377557755E-1
1.929098208E1,-8.950841427E-1,-2.564499378E-1,-5.140113831E-2
1.930106708E1,-1.184074283E0,1.495158672E-2,-6.225757599E-1
1.931095108E1,-1.482555509E0,3.326915503E-1,-1.014289856E0
1.932095408E1,-1.116320729E0,3.744401932E-1,-1.266555786E0
1.933577808E1,2.207392931E0,-8.863909245E-1,-8.446598053E-1
1.935100408E1,3.276110411E0,-4.285042286E-1,-2.928733826E-1
1.936127908E1,4.363290310E0,-2.129142284E-1,1.550936699E0
1.937191608E1,4.963451385E0,-2.659420967E0,5.903212547E0
1.938095808E1,4.804839134E0,-2.412698984E0,5.871944427E0
1.939103808E1,2.491478920E0,-2.474951744E0,6.600902557E0
1.940095608E1,-4.319366515E-1,-1.846066713E0,5.917086601E0
1.941098608E1,-4.768710613E0,7.179660797E-1,4.903172493E0
1.942094608E1,-4.720008373E0,1.427452564E0,4.160912514E0
1.943090208E1,-3.512371302E0,1.542757034E0,3.573451996E0
1.944105808E1,-1.731914878E0,1.939172626E0,2.875403404E0
1.945089908E1,1.301175356E-1,2.406341076E0,1.993522644E0
1.946106108E1,1.565479279E0,2.771731853E0,1.110116005E0
1.947112608E1,2.531024456E0,2.981307983E0,-1.208782196E-2
1.948112208E1,2.970440388E0,3.076141119E0,-1.243338585E0
1.949303808E1,3.017991304E0,2.968606710E0,-2.525813103E0
1.950105008E1,2.472016335E0,2.873175144E0,-2.888772488E0
1.951093108E1,1.674482822E0,2.883342743E0,-3.184991360E0
1.952089408E1,9.718701243E-1,2.908190966E0,-3.345281601E0
1.953087708E1,3.373439908E-1,2.807882309E0,-3.206186295E0
1.954121908E1,-2.151503563E-1,2.692904234E0,-2.852853298E0
1.955099708E1,-6.616827250E-1,2.576169252E0,-2.519645691E0
1.956111808E1,-9.109544158E-1,2.383557081E0,-2.170255184E0
1.957089108E1,-1.051907659E0,2.182355881E0,-2.000211716E0
1.958093508E1,-1.215716362E0,2.098039150E0,-2.075552464E0
1.959093208E1,-1.296034098E0,2.001142502E0,-2.368575096E0
1.960110308E1,-1.271427751E0,1.832917690E0,-2.617028236E0
1.961132308E1,-1.206050396E0,1.670539737E0,-2.900836468E0
1.962115708E1,-1.153957963E0,1.442030311E0,-3.150264740E0
1.963098008E1,-1.153380275E0,1.248948812E0,-3.237224102E0
1.964091608E1,-1.182144880E0,1.041656375E0,-3.179347038E0
1.965096508E1,-1.184312940E0,7.901742458E-1,-2.986632824E0
1.966196408E1,-1.199833632E0,5.687870383E-1,-2.587430000E0
1.967093508E1,-1.222111225E0,2.931199968E-1,-1.851006031E0
1.968096008E1,-1.293597817E0,-2.412864566E-2,-1.161058426E0
1.969097308E1,-1.487506866E0,-2.630389333E-1,-4.593648911E-1
1.970101508E1,-1.702115536E0,-4.636446536E-1,3.468770981E-1
1.971100308E1,-1.772019506E0,-7.264449596E-1,8.739767075E-1
1.972106108E1,-1.565262675E0,-1.009564400E0,1.143969536E0
1.973117408E1,-1.159704924E0,-1.131449223E0,1.140926361E0
1.974089308E1,-6.476421356E-1,-1.211059332E0,9.283266068E-1
1.975091708E1,-7.032907009E-2,-1.354060411E0,8.748445511E-1
1.976104708E1,5.763644576E-1,-1.473381519E0,7.744207382E-1
1.977090108E1,1.152160883E0,-1.545003414E0,9.501142502E-1
1.978188608E1,1.534314275E0,-1.646829605E0,1.116668701E0
1.979095908E1,1.727569818E0,-1.760851264E0,1.172015190E0
1.980105908E1,1.686627269E0,-1.759452105E0,1.210976601E0
1.981091008E1,1.747829914E0,-1.872369647E0,1.435960770E0
1.982128208E1,2.286031485E0,-2.485429764E0,2.092149734E0
1.983094708E1,2.908052921E0,-3.189990044E0,2.913370132E0
1.984091408E1,3.135825872E0,-3.286848783E0,3.877737045E0
1.985126508E1,3.055169582E0,-3.044992924E0,4.997142792E0
1.986092008E1,2.903030396E0,-3.180980206E0,6.026970863E0
1.987100008E1,2.380986929E0,-3.414198399E0,6.183682442E0
1.988092208E1,1.119978309E0,-3.053848267E0,5.574892998E0
1.989091608E1,-3.281816840E-1,-2.303861856E0,4.380476952E0
1.990113408E1,-1.339974880E0,-1.666831613E0,3.075001717E0
1.991107908E1,-1.736849785E0,-1.092241287E0,1.819607735E0
1.992100008E1,-1.829947233E0,-4.594245553E-1,6.945610046E-1
1.993092808E1,-1.633215427E0,1.717023700E-1,-3.421430588E-1
1.994107108E1,-6.426869631E-1,1.010609627E0,-2.146714211E0
1.995166408E1,-1.625430584E-2,1.271403551E0,-2.802707195E0
1.996090608E1,5.128471851E-1,1.494643807E0,-3.265727997E0
1.997087308E1,9.259321690E-1,1.670091748E0,-3.430646896E0
1.998096308E1,1.240737200E0,1.741111517E0,-3.343802929E0
1.999106508E1,1.423426270E0,1.774549723E0,-3.078554630E0
2.000157808E1,1.455524802E0,1.883047938E0,-2.693307400E0
2.001090008E1,1.383881450E0,1.875258207E0,-2.069969654E0
2.002103208E1,1.120819330E0,1.621766806E0,-1.169223785E0
2.003118208E1,8.729835749E-1,1.448183656E0,-6.188097000E-1
2.004102508E1,6.046729684E-1,1.275286555E0,2.766609192E-2
2.005097508E1,3.917312622E-1,1.144836903E0,5.010385513E-1
2.006104708E1,1.856619120E-1,1.090574503E0,9.583196640E-1
2.007132308E1,4.458767176E-2,9.807667732E-1,1.335297585E0
2.008092608E1,-8.992987871E-2,8.551393747E-1,1.304567337E0
2.009095808E1,-1.772312522E-1,7.893822193E-1,7.978410721E-1
2.010105208E1,-2.318943739E-1,6.571015120E-1,2.545948029E-1
2.011145108E1,-1.253075004E-1,6.171965003E-1,-4.851455688E-1
2.012132208E1,1.707567275E-1,5.356768370E-1,-1.179559708E0
2.013098708E1,3.932128549E-1,4.569711387E-1,-1.391880989E0
2.014103908E1,5.453889370E-1,3.812844753E-1,-1.786841393E0
2.015097208E1,5.369945765E-1,3.021987975E-1,-1.791700840E0
2.016120708E1,2.901675403E-1,1.866707057E-1,-1.358362198E0
2.017146708E1,5.131083727E-2,-2.009903193E-1,-7.804994583E-1
2.018098008E1,-7.603549957E-2,-6.766219139E-1,-3.589162827E-1
2.019096808E1,-2.105017304E-1,-9.868492484E-1,4.226303101E-2
2.020124008E1,-1.849099398E-1,-1.274462461E0,1.495332718E-1
2.021092308E1,2.426135540E-2,-1.513783455E0,8.686447144E-2
2.022113708E1,3.317898810E-1,-1.529250383E0,-2.332763672E-1
2.023106608E1,5.795138478E-1,-1.293114424E0,-6.507387161E-1
2.024102308E1,8.595729470E-1,-9.638462663E-1,-8.933601379E-1
2.025091308E1,1.192975760E0,-7.701082826E-1,-1.314171791E0
2.026097708E1,1.207540989E0,-4.165431857E-1,-1.786312103E0
2.027144108E1,1.042563319E0,3.306114674E-2,-1.979192257E0
2.028112008E1,1.010579467E0,3.329862356E-1,-2.002325535E0
2.029108008E1,1.517054081E0,1.258548498E-1,-1.578664780E0
2.030091108E1,2.431192875E0,-4.265716076E-1,-7.123346329E-1
2.031094308E1,3.067148209E0,-4.733867645E-1,6.552810669E-1
2.032129408E1,3.211411476E0,-3.679981232E-1,2.483279228E0
2.033092208E1,2.854109526E0,-7.413085103E-1,5.014413834E0
2.034095108E1,1.806721926E0,-1.282335162E0,8.068915367E0
2.035090208E1,2.510851324E-1,-1.254815340E0,9.640946388E0
2.036123708E1,-1.706920266E0,-5.359851718E-1,9.421183586E0
2.037091508E1,-3.334099054E0,4.750581086E-1,7.955404282E0
2.038102808E1,-4.070150852E0,1.378465414E0,6.315461159E0
2.039551308E1,-3.802898407E0,2.012369871E0,5.069414139E0
2.041104308E1,-1.115166426E0,2.871786594E0,2.968633652E0
2.042094908E1,3.731573820E-1,3.203009367E0,1.441139221E0
2.043097108E1,1.669633865E0,3.352692842E0,-2.617254257E-1
2.044108508E1,2.490202188E0,3.242559433E0,-1.311655045E0
2.045093608E1,2.749322891E0,2.939536095E0,-2.178413868E0
2.046103808E1,2.458306789E0,2.708994865E0,-3.126471996E0
2.047091508E1,1.790481329E0,2.554710150E0,-3.622472763E0
2.048106308E1,1.388416886E-1,2.179880857E0,-3.548145771E0
2.049156308E1,-5.634435415E-1,1.934167624E0,-3.166055202E0
2.050087508E1,-1.218538046E0,1.803362727E0,-2.708140850E0
2.051093108E1,-1.735415339E0,1.716959834E0,-2.166026115E0
2.052086608E1,-2.044402599E0,1.653149605E0,-1.659537315E0
2.053087508E1,-2.076372147E0,1.591461658E0,-1.312111855E0
2.054105708E1,-1.911860704E0,1.402040482E0,-1.116483688E0
2.055097508E1,-1.592380404E0,1.234579086E0,-1.377494812E0
2.056105008E1,-1.329867840E0,1.092489719E0,-1.873096943E0
2.057092108E1,-1.201512456E0,1.079525828E0,-2.608739376E0
2.058091508E1,-1.013415337E0,9.938575029E-1,-3.166348457E0
2.059090408E1,-7.975221872E-1,8.107576370E-1,-3.339831829E0
2.060090908E1,-5.618290901E-1,5.645002127E-1,-3.353655815E0
2.061126108E1,-3.991737366E-1,2.868918180E-1,-3.136104584E0
2.062085008E1,-4.245548248E-1,4.526627064E-2,-2.667201519E0
2.063092408E1,-3.407477140E-1,-1.519528627E-1,-2.020793438E0
2.064088508E1,-2.163220644E-1,-4.077973664E-1,-1.236186028E0
2.065106008E1,-2.122063637E-1,-6.812232733E-1,-6.149396896E-1
2.066118908E1,-3.690159321E-1,-8.190776706E-1,-3.288688660E-1
2.067115108E1,-5.290799141E-1,-9.208635092E-1,-2.140207291E-1
2.068119708E1,-6.026777029E-1,-1.101447821E0,-1.124525070E-1
2.069099308E1,-5.589194298E-1,-1.264107466E0,4.311084747E-2
2.070092208E1,-4.360015392E-1,-1.330765247E0,2.737884521E-1
