"Time (s)","Linear Acceleration x (m/s^2)","Linear Acceleration y (m/s^2)","Linear Acceleration z (m/s^2)"
4.860971100E-2,-1.089963913E-1,2.376055717E-1,2.682666779E-1
6.485083600E-2,-2.915129662E-1,3.055377007E-1,3.396439552E-1
7.755389800E-2,-4.253547192E-1,3.383922577E-1,4.622750282E-1
8.896292900E-2,-3.810062408E-1,3.443374634E-1,5.295720100E-1
9.960194500E-2,-3.588097095E-1,3.708596230E-1,5.717744827E-1
1.099199530E-1,-3.554475307E-1,4.039893150E-1,6.700105667E-1
1.203984570E-1,-2.986235619E-1,4.137048721E-1,8.160853386E-1
1.303807090E-1,-2.414457798E-1,4.499306679E-1,7.953214645E-1
1.403228350E-1,-1.681058407E-1,4.472208023E-1,7.892284393E-1
1.502828980E-1,-4.582619667E-2,4.393854141E-1,7.815022469E-1
1.602649290E-1,-2.235221863E-2,5.372118950E-1,7.921705246E-1
1.702559450E-1,7.576584816E-2,6.135697365E-1,7.979755402E-1
1.802829530E-1,1.214957237E-1,6.524763107E-1,7.830548286E-1
1.903429570E-1,3.207354546E-1,6.427001953E-1,6.594758034E-1
2.003374590E-1,6.018331051E-1,5.726289749E-1,5.108828545E-1
2.106082100E-1,6.214691401E-1,5.658054352E-1,5.583281517E-1
2.204950850E-1,5.684783459E-1,5.684127808E-1,7.040114403E-1
2.306350230E-1,4.226624966E-1,5.222883224E-1,9.594321251E-1
2.406819920E-1,2.692776918E-1,7.402648926E-1,1.588219166E0
2.505144760E-1,-2.313292027E-1,5.266852379E-1,1.818490982E0
2.603882180E-1,-3.254346848E-1,2.893991470E-1,1.963312626E0
2.703495890E-1,2.082670927E-1,6.585664749E-1,2.520627499E0
2.802977750E-1,-1.245992661E0,6.291232109E-1,2.721806526E0
2.902803680E-1,-1.221566439E0,1.014124393E0,3.099347591E0
3.002791640E-1,1.456085324E0,-1.527285576E-1,3.026376247E0
3.102995620E-1,3.185968637E0,-2.256378174E0,2.720006466E0
3.203042610E-1,-7.498897314E-1,-9.527449608E-1,1.025256157E0
3.303151110E-1,-3.865010738E-1,-8.814334869E-3,-4.417181015E-1
3.402930360E-1,1.911184907E0,-1.344665766E0,5.457496643E-2
3.503179980E-1,-5.397616625E-1,-4.210453033E-1,-1.513290405E-1
3.603499790E-1,2.321748495E0,-1.137594938E0,-8.151845932E-1
3.702729700E-1,1.514103651E0,-1.362744808E0,1.617469788E-1
3.803084650E-1,1.265977025E0,-1.460297108E0,-8.600916862E-1
3.920592130E-1,1.444913626E0,-1.850244522E0,-1.939706802E-1
4.011510870E-1,1.253055334E0,-1.748040676E0,-2.671508789E-1
4.107920240E-1,8.816308379E-1,-1.709495544E0,2.766036987E-2
4.205444920E-1,-1.999827325E-1,-1.919769287E0,-5.094070435E-1
4.303927260E-1,-2.793749869E-1,-1.133640766E0,-1.132760525E0
4.403283430E-1,9.345254898E-1,-1.353752375E0,-2.210738659E0
4.503146520E-1,7.787156105E-1,-4.824969769E-1,-1.994464397E0
4.604358060E-1,-8.197191954E-1,-1.414875984E0,-3.005441666E0
4.703748830E-1,-1.967284322E0,-1.132208109E0,-2.908348083E0
4.803839220E-1,-6.724166870E-1,-1.910610199E-1,-2.800567150E0
4.920529410E-1,-3.661106825E-1,4.165778160E-1,9.219169617E-2
5.011629510E-1,-2.781192660E-1,4.358181953E-1,8.329296112E-2
5.109049560E-1,-3.449301124E-1,-2.487199306E-1,5.019359589E-1
5.206254580E-1,1.114612222E-1,-1.335913897E0,1.077111244E0
5.304937090E-1,4.506727159E-1,-1.735751629E0,9.026288986E-1
5.403703350E-1,5.699825883E-1,-1.927742958E0,1.534678459E0
5.503391480E-1,4.754201174E-1,-1.762926817E0,3.385417938E0
5.612165540E-1,8.612262607E-1,-1.586814165E0,3.009948730E0
5.707282570E-1,1.727828383E0,-1.545006752E0,2.515535355E0
5.805071090E-1,4.090513706E0,-1.024296522E0,1.465254784E0
5.905010350E-1,4.251109123E0,-7.861375809E-1,1.009231567E0
6.004389980E-1,3.108145714E0,-7.365288734E-1,2.030401230E0
6.103524790E-1,1.477878571E0,-4.168715477E-1,8.624696732E-1
6.202822200E-1,-6.293133646E-2,-4.701330662E-1,1.261615753E-1
6.304330900E-1,-5.115316510E-1,-7.342054844E-1,3.425436020E-1
6.403465250E-1,-2.197404653E-1,-1.040767670E0,4.795551300E-1
6.504487430E-1,6.990678310E-1,-1.299607396E0,1.118888855E-1
6.603448520E-1,9.989407659E-1,-1.089162111E0,1.962823868E-1
6.702709060E-1,4.787501693E-1,-1.015069246E0,-8.719406128E-1
6.807664330E-1,-5.770303607E-1,-1.046479464E0,-1.162504196E0
6.905521970E-1,-1.415862083E0,-5.684611797E-1,-1.397072792E0
7.004075790E-1,-2.152855635E0,5.452401638E-1,-1.097285271E0
7.103192700E-1,-1.333044529E0,-3.411147594E-1,-1.638857365E0
7.203626150E-1,-1.442282677E0,-5.116491318E-1,-1.473291874E0
7.306537880E-1,-9.220685959E-1,-1.067013741E0,-1.592196465E0
7.404563740E-1,-5.754690170E-1,-1.511713028E0,-1.939581871E0
7.503516670E-1,-7.217744589E-1,-1.547955394E0,-2.173880577E0
7.608773140E-1,-8.909062147E-1,-1.329084516E0,-2.214203835E0
7.705426370E-1,-1.451718807E0,-8.650047779E-1,-1.960224628E0
7.804002990E-1,-1.698267460E0,-6.123902798E-1,-1.442019939E0
7.903981300E-1,-1.468352199E0,-7.734932899E-1,-1.072879314E0
8.003410450E-1,-1.333157897E0,-9.511649609E-1,-7.655172348E-1
8.103825030E-1,-1.370347500E0,-1.090295553E0,-6.019020081E-2
8.202877320E-1,-1.565870523E0,-1.112103105E0,7.869014740E-1
8.305008460E-1,-1.919131756E0,-8.937053680E-1,1.655248642E0
8.407149030E-1,-2.059610367E0,-1.212526917E0,2.600118637E0
8.506624320E-1,-1.613331199E0,-1.635752678E0,2.945017815E0
8.604656960E-1,-5.743982792E-1,-2.245499134E0,2.529452324E0
8.704203280E-1,1.616942883E-1,-2.412513733E0,2.490244865E0
8.810191440E-1,-6.934568882E-1,-8.945777416E-1,3.294097900E0
8.906420520E-1,-1.743398905E0,-3.458032608E-1,2.633428574E0
9.004605060E-1,-2.230648518E0,-9.266209602E-2,1.900732994E0
9.103652330E-1,-2.388423443E0,1.421828270E-1,1.945508003E0
9.203915970E-1,-2.529405355E0,1.614994764E0,3.956346512E0
9.305512790E-1,-3.336908340E0,2.763510227E0,3.987832069E0
9.404306200E-1,-2.606015921E0,1.465839863E0,3.504509926E0
9.504917900E-1,-1.951256752E0,2.131199837E-1,3.140025616E0
9.616803750E-1,3.579897881E-1,-1.601164341E0,2.935741901E0
9.709686680E-1,8.779001236E-2,-1.637480021E0,3.136513233E0
9.806293140E-1,4.678483009E-1,-1.835682988E0,3.001533985E0
9.907696370E-1,2.668304443E-1,-1.611070156E0,2.714594841E0
1.000509299E0,8.721351624E-2,-1.245227814E0,2.273149014E0
1.010462630E0,2.054648399E-1,-1.010471106E0,2.009401798E0
1.020404795E0,5.613594055E-1,-9.297971725E-1,1.977749825E0
1.030327378E0,8.433504105E-1,-7.589504719E-1,2.005136490E0
1.040289669E0,1.345856190E0,-2.890110016E-1,1.846544743E0
1.050280815E0,1.875327587E0,4.290013313E-1,1.428489685E-1
1.060256388E0,1.621727943E0,5.741195679E-1,-8.914813995E-1
1.070213674E0,1.423895836E0,6.536724567E-1,-1.918217182E0
1.080261317E0,1.184469700E0,6.445667744E-1,-2.379384756E0
1.090320639E0,1.090583324E0,2.813789845E-1,-2.372802734E0
1.100451800E0,1.428993225E0,-4.463860989E-1,-2.318428278E0
1.110339380E0,1.878374100E0,-1.068210363E0,-1.945250154E0
1.120260170E0,2.152923584E0,-1.484823942E0,-1.431420565E0
1.130405065E0,2.232031822E0,-1.770148516E0,-1.220769882E0
1.140329513E0,2.015049934E0,-2.094525576E0,-1.076313972E0
1.150407737E0,1.252971649E0,-2.335306168E0,-8.260018826E-1
1.160397349E0,1.464443207E-1,-2.403418541E0,-6.042389870E-1
1.170303655E0,-8.430566788E-1,-2.848157883E0,-7.278851271E-1
1.180291308E0,-1.815868378E0,-3.466739178E0,-9.227502346E-1
1.190271634E0,-2.481565475E0,-4.276003838E0,-1.066941381E0
1.200703297E0,-2.669543743E0,-5.205893040E0,-9.410821199E-1
1.210576629E0,-2.849718571E0,-5.569941521E0,-4.446382523E-1
1.220406295E0,-3.099644184E0,-5.843450546E0,5.628073215E-2
1.230328128E0,-3.456486225E0,-6.363368988E0,1.557563543E-1
1.240306044E0,-3.917986393E0,-6.853358269E0,2.007073164E-2
1.250361002E0,-4.380661488E0,-7.298487186E0,7.663255930E-2
1.260302981E0,-4.907327652E0,-7.483849525E0,4.372322857E-1
1.270409471E0,-5.435317993E0,-7.607879162E0,8.155196905E-1
1.280387716E0,-5.435503006E0,-7.958516598E0,8.527824283E-1
1.290341338E0,-4.513754845E0,-8.483551979E0,3.768278360E-1
1.300319149E0,-3.095591545E0,-8.420614243E0,-8.929622173E-2
1.310288555E0,-2.303237915E0,-7.728577614E0,-2.248632908E-1
1.320399258E0,-1.791261196E0,-7.065989494E0,-7.352352142E-2
1.330414609E0,-1.234406471E0,-6.701349735E0,2.113711834E-1
1.340338785E0,-8.524150848E-1,-6.351155281E0,5.825707912E-1
1.350292373E0,-9.971361160E-1,-5.880755901E0,1.047475100E0
1.360554167E0,-1.157153130E0,-5.526899338E0,1.835544944E0
1.370379564E0,-1.017805099E0,-4.881786346E0,2.357979536E0
1.380314762E0,-5.492296219E-1,-4.403031826E0,3.079355001E0
1.390298361E0,-1.794157028E-1,-3.865542889E0,2.944775105E0
1.400319661E0,1.371669769E-1,-3.143442154E0,2.296803474E0
1.410347311E0,8.126497269E-1,-2.809925556E0,2.401277304E0
1.420300136E0,2.797808647E0,-3.074419975E0,2.331971884E0
1.430471048E0,5.029823303E0,-2.830883265E0,2.573796511E0
1.440591504E0,6.062348366E0,-1.597665071E0,3.435311794E0
1.450430232E0,6.234735489E0,-9.737753868E-2,3.902130365E0
1.460351596E0,6.440233231E0,9.814457893E-1,3.286594152E0
1.470281778E0,6.896057129E0,1.560821295E0,2.328404427E0
1.480591869E0,7.417947769E0,2.372455597E0,1.276760101E0
1.490510415E0,8.011583328E0,3.141406536E0,8.745956421E-2
1.500400188E0,9.289031982E0,3.783168316E0,-7.398563623E-1
1.510407574E0,1.000902176E1,4.501213074E0,-1.461102009E0
1.520342767E0,1.049675560E1,4.855938435E0,-2.504840612E0
1.530741864E0,1.139932919E1,4.868933201E0,-3.765702248E0
1.540658912E0,1.143380642E1,5.318441391E0,-5.322966099E0
1.550461436E0,1.076889992E1,5.974376678E0,-7.441399574E0
1.560364698E0,9.512630463E0,6.350993156E0,-9.162626266E0
1.570302829E0,7.941533089E0,6.243780136E0,-9.434379578E0
1.580960395E0,5.561700821E0,4.970662594E0,-8.015520096E0
1.590801678E0,4.175936699E0,4.395725727E0,-7.473830223E0
1.600527819E0,3.329733849E0,4.081413746E0,-7.131400585E0
1.611275890E0,2.481475830E0,3.897772551E0,-6.908975124E0
1.621513425E0,1.930004120E0,3.451173782E0,-6.683747292E0
1.630883693E0,1.267845154E0,2.595034122E0,-6.492131710E0
1.640567327E0,8.848075867E-1,1.983723402E0,-5.698368549E0
1.650402144E0,6.518783569E-1,1.588072300E0,-4.536976337E0
1.660951052E0,3.923568726E-1,1.123003960E0,-3.654875755E0
1.670721006E0,2.207508087E-1,6.712627411E-1,-2.368594885E0
1.680496983E0,2.719802856E-1,2.183732986E-1,-1.244101644E0
1.690381972E0,7.195472717E-2,-2.014327049E-1,-4.331330657E-1
1.700427966E0,-2.225265503E-1,-5.715053082E-1,-4.756722450E-1
1.710325463E0,-9.140987396E-1,-8.830840588E-1,-1.280825973E0
1.720281712E0,-1.009738922E0,-4.015790224E-1,-2.270031214E0
1.730255336E0,-5.193614960E-1,-4.433460236E-1,-2.329283476E0
1.740237648E0,4.304780960E-1,-9.183727503E-1,-3.089960337E0
1.750852304E0,5.193090439E-1,4.893598557E-1,-1.664816499E0
1.760539132E0,1.777435303E0,-1.314343214E0,-2.981067598E-1
1.770374046E0,7.305326462E-1,-1.559746027E0,1.569627166E0
1.780325003E0,-2.926626205E-1,-1.858223200E0,2.770394802E0
1.790280482E0,-1.323243141E0,-1.061299801E0,2.458241940E0
1.800384721E0,-1.180579185E0,-1.327393293E0,2.878811359E0
1.810338841E0,-7.070064545E-1,-1.860782862E0,3.822490931E0
1.820276901E0,-2.987995148E-1,-2.323321819E0,5.168039322E0
1.830271931E0,-1.883268356E-1,-2.625172615E0,5.952872276E0
1.840266446E0,7.182435989E-1,-4.130114079E0,5.453086853E0
1.850259703E0,-3.320608139E-1,-3.535744429E0,3.938794851E0
1.860383832E0,1.924591064E-1,-2.471257210E0,-4.309417009E-1
1.870435896E0,-4.664735794E-1,-2.805453300E0,-4.429297447E0
1.880382928E0,-1.730859756E0,-1.839099884E0,-4.913888931E0
1.890313944E0,-2.117363930E0,-3.006940603E0,-1.698507309E0
1.900512952E0,-2.688821316E0,-5.476002216E0,-4.919810295E-1
1.910485956E0,-2.679383278E0,-5.488936901E0,-3.494369984E-1
1.920927458E0,-3.479115009E0,-3.295563698E0,2.305150032E-1
1.930578709E0,-3.437325954E0,-2.829713106E0,2.210243940E0
1.940426335E0,-3.526223660E0,-3.429350615E0,3.084567785E0
1.950347148E0,-3.212727070E0,-5.250221252E0,3.691129208E0
1.960308554E0,-2.749446869E0,-6.490327835E0,4.050573826E0
1.970261257E0,-2.316399574E0,-6.526756287E0,4.262443542E0
1.980253609E0,-1.850507259E0,-5.810350895E0,4.449096680E0
1.990463785E0,-1.215798378E0,-4.995101929E0,4.115863800E0
2.000363873E0,-5.253295898E-1,-4.323725700E0,3.532517910E0
2.010293417E0,6.263542175E-2,-3.827377796E0,2.618929386E0
2.020258689E0,4.441251755E-1,-3.194999695E0,1.713702440E0
2.030276825E0,1.134993553E0,-2.765572548E0,1.145342469E0
2.040727893E0,2.138581276E0,-2.434807777E0,6.306627989E-1
2.050483427E0,3.023276329E0,-1.909101248E0,1.394809484E0
2.060383194E0,2.904444695E0,-7.660849094E-1,3.230926037E0
2.070306077E0,2.227941513E0,-5.069780350E-2,3.491381407E0
2.080279019E0,1.544868469E0,1.772389412E-1,2.807531595E0
2.090566490E0,-3.334140778E-2,-7.232124805E-1,1.260787487E0
2.100456225E0,7.709026337E-2,-4.285049438E-1,1.209641218E0
2.110398593E0,-7.772598267E-1,-4.824218750E-1,5.251590014E-1
2.120391277E0,-1.962730408E0,-4.015312195E-1,-2.594650984E-1
2.130328619E0,-2.306477070E0,4.860162735E-2,-3.280657530E-1
2.140299290E0,-2.652079582E0,4.345011711E-1,-6.010520458E-2
2.151328625E0,-2.979723454E0,8.467946053E-1,2.008265257E-1
2.161501293E0,-3.304919720E0,1.270423412E0,6.282258034E-2
2.171524127E0,-3.491925716E0,1.464187622E0,-1.031751633E-1
2.180867044E0,-3.129031658E0,1.090393543E0,4.641103745E-2
2.190541002E0,-2.589445114E0,5.616416931E-1,4.624032974E-2
2.200629981E0,-2.018492699E0,3.168869019E-2,-6.228083372E-2
2.210430471E0,-1.688049793E0,-2.963352203E-2,-3.618336916E-1
2.220335716E0,-1.643090248E0,3.969349861E-1,-5.071212649E-1
2.230297338E0,-1.590658188E0,3.831248283E-1,2.608464062E-1
2.240262149E0,-1.655142784E0,6.813969612E-1,5.558242202E-1
2.250221055E0,-1.772195339E0,1.303249359E0,1.149325490E0
2.260238508E0,-1.830469131E0,1.693930149E0,1.195343733E0
2.270247734E0,-1.802800417E0,2.196506500E0,1.016501665E0
2.280290347E0,-1.944480658E0,2.527538776E0,5.010253191E-1
2.290369654E0,-2.171027899E0,3.031857967E0,4.309271276E-2
2.300297807E0,-2.295158386E0,3.330441475E0,1.024602577E-1
2.310656384E0,-2.162368059E0,3.278539181E0,1.968202144E-1
2.320452672E0,-2.057047844E0,3.211303711E0,1.791267470E-2
2.330378816E0,-2.030323505E0,3.460467339E0,3.247521818E-1
2.340323388E0,-1.816069722E0,3.525068760E0,5.638298392E-1
2.350319174E0,-9.105513096E-1,2.767266273E0,-7.381634712E-1
2.360337067E0,-3.746354580E-1,1.443727493E0,-1.265667558E0
2.370294514E0,6.276232004E-1,-1.055746078E-1,-2.306821585E0
2.380282237E0,1.158094287E0,1.147644043E0,-1.129139066E0
2.390434599E0,1.945631981E0,2.806377411E-2,-5.781360269E-1
2.400625280E0,3.531287670E0,-2.438502312E0,1.082894087E0
2.410483620E0,4.362075806E0,-6.658284187E0,1.250488162E0
2.420370290E0,3.801464796E0,-1.061549664E1,3.639584780E-2
2.430441125E0,2.890591621E0,-1.377438641E1,2.164636552E-1
2.440704043E0,-4.773661792E-1,-1.256023216E1,-7.158505917E-1
2.450567502E0,-3.917468786E0,-1.050840950E1,-2.569943428E0
2.460392231E0,-5.081106663E0,-8.829057693E0,-1.400458813E0
2.470355596E0,-3.589690447E0,-6.044719696E0,-1.667691231E0
2.480453778E0,-1.111353517E0,-3.186446190E0,-3.348836899E-1
2.490354869E0,3.795493841E-1,-2.153797150E0,1.053161740E0
2.500337915E0,1.156069517E0,-1.996650696E0,1.908289790E0
2.510550938E0,1.950644970E0,-1.962516785E0,2.856505871E0
2.520410449E0,1.932079077E0,-2.351140976E0,2.806315899E0
2.530401705E0,1.511567473E0,-2.865742683E0,2.540339708E0
2.540320333E0,1.007765174E0,-3.096898079E0,2.158284664E0
2.551100647E0,3.747937083E-1,-3.125493050E0,1.696921349E0
2.560686304E0,-3.616837263E-1,-2.900888443E0,1.316787004E0
2.570544132E0,-1.021013975E0,-2.542313576E0,1.014904141E0
2.580412046E0,-1.470679998E0,-2.238014221E0,8.464139700E-1
2.591784503E0,-1.669493079E0,-2.045857430E0,5.634359121E-1
2.602878232E0,-2.631224871E0,-1.916247368E0,1.165605068E0
2.620357961E0,-2.679550409E0,-1.920537949E0,1.181465507E0
2.630222961E0,-3.292368174E0,-1.571778297E0,1.702093244E0
2.640238961E0,-3.629758835E0,-8.756103516E-1,1.535076618E0
2.650236961E0,-3.997312784E0,-1.521768570E-1,1.392978787E0
2.660497961E0,-4.445356846E0,1.005594254E0,1.965834856E0
2.670228961E0,-4.556749821E0,1.406727791E0,3.187016964E0
2.680221961E0,-4.485360146E0,1.477402687E0,4.006842613E0
2.690256961E0,-4.240532398E0,1.314609528E0,2.711408138E0
2.700277961E0,-4.471783161E0,9.888134003E-1,1.888731122E0
2.711280961E0,-4.779433727E0,4.805154800E-1,1.243760228E0
2.720216961E0,-5.101193428E0,5.521011353E-2,9.843232632E-1
2.730361961E0,-4.957920074E0,-1.152553558E-1,8.814397454E-1
2.740315961E0,-4.276844501E0,-6.611404419E-1,4.963784218E-1
2.750267961E0,-3.321956158E0,-9.207515717E-1,-1.059311628E-1
2.760198961E0,-2.571873188E0,-7.345666885E-1,-9.310417175E-1
2.770262961E0,-2.137639046E0,1.155691147E-1,-1.329099298E0
2.780662961E0,-2.099496365E0,5.061874390E-1,-1.453252435E0
2.790215961E0,-2.826031923E0,1.664284229E0,-2.100614548E0
2.800253961E0,-2.579833984E0,2.707285881E0,-3.185378313E0
2.810267961E0,-1.034753680E0,3.003654003E0,-3.520895958E0
2.820454961E0,3.872513771E-4,2.984416962E0,-3.112614155E0
2.830752961E0,2.088362575E-1,2.935527802E0,-2.760678768E0
2.840253961E0,-1.794470549E-1,2.711492062E0,-2.033907890E0
2.850254961E0,-8.190148473E-1,2.759469509E0,-1.489413261E0
2.860304961E0,-1.357856989E0,2.646934509E0,-9.053800106E-1
2.870237961E0,-1.984295130E0,3.069563866E0,-2.404360771E-1
2.880899961E0,-2.434612989E0,3.541360378E0,5.579454899E-1
2.891555961E0,-2.573434830E0,3.796593666E0,1.409257174E0
2.900827961E0,-2.522004128E0,3.864498615E0,2.267017365E0
2.910278961E0,-2.315837383E0,3.745547295E0,2.864505529E0
2.920308961E0,-1.928503990E0,3.425847530E0,3.195342541E0
2.930457961E0,-1.408348203E0,3.111559391E0,3.224029779E0
2.940450961E0,-1.118671179E0,2.756648064E0,3.155341625E0
2.950286961E0,-8.355112672E-1,2.166205406E0,2.824806690E0
2.960466961E0,-4.078709185E-1,1.431542873E0,2.331820250E0
2.970440961E0,-1.506751403E-2,3.913326263E-1,1.913129687E0
2.980244961E0,2.982347831E-2,-6.798868179E-1,1.670207620E0
2.990225961E0,7.007423788E-2,-1.535623550E0,1.672491193E0
3.000292961E0,3.662234172E-2,-1.971715927E0,2.020855904E0
3.010228961E0,2.474743128E-1,-1.987924576E0,2.378775597E0
3.020543961E0,7.880626917E-1,-1.742307663E0,2.595466614E0
3.030811961E0,1.323022366E0,-1.274466515E0,2.642055273E0
3.040284961E0,1.384722114E0,-4.669160843E-1,2.513720036E0
3.050278961E0,1.111683249E0,4.918746948E-1,2.387452841E0
3.060466961E0,7.873430848E-1,1.437583923E0,2.138003349E0
3.070252961E0,6.978977919E-1,2.183519840E0,1.778636456E0
3.080218961E0,8.115788102E-1,2.693356991E0,1.451618671E0
3.090243961E0,1.104263306E0,2.884948254E0,1.100552320E0
3.100478961E0,1.404338360E0,2.880541801E0,6.628659964E-1
3.110336961E0,1.734756351E0,2.693529129E0,-1.314888000E-1
3.120357961E0,2.061242819E0,2.434566021E0,-1.561142921E0
3.130368961E0,2.010814667E0,2.132218361E0,-2.904753685E0
3.141662961E0,1.171861410E0,1.932552338E0,-4.904845238E0
3.150234961E0,-2.969152033E-1,1.262314796E0,-4.851831913E0
3.160999961E0,-8.234881759E-1,7.156658173E-2,-3.591248751E0
3.170220961E0,-6.546922922E-1,-6.890277863E-1,-3.498106480E0
3.180380961E0,-4.495014250E-1,-7.859659195E-1,-2.357892990E0
3.190275961E0,-3.728533685E-1,-4.030122757E-1,-1.021040678E0
3.200552961E0,-3.498892784E-1,5.280485153E-1,4.341460466E-1
3.210227961E0,-2.312351018E-1,5.901327133E-1,5.663175583E-1
3.220304961E0,-2.663160563E-1,5.869607925E-1,6.407493353E-1
3.232555961E0,-4.453621507E-1,6.624555588E-1,7.136679888E-1
3.245676461E0,-1.114896059E0,1.445793152E0,8.132237196E-1
3.260265961E0,-1.484598160E0,2.077237606E0,6.966074705E-1
3.270272961E0,-1.685664415E0,2.607544899E0,4.759796858E-1
3.280276961E0,-1.896692038E0,3.109755993E0,1.914361715E-1
3.290215961E0,-2.091725826E0,3.523814678E0,-1.664192677E-1
3.305106961E0,-2.031550169E0,3.746566772E0,-4.389109612E-1
3.320238961E0,-1.196734428E0,4.105170727E0,9.859478474E-2
3.330198961E0,-1.131036162E0,4.062191010E0,7.618045211E-1
3.340415961E0,-1.337976217E0,3.486867905E0,1.207619309E0
3.350247961E0,-1.607323885E0,2.276599407E0,1.378804684E0
3.360388961E0,-1.833976030E0,4.339818954E-1,1.464312077E0
3.370246961E0,-2.055968285E0,-1.856158257E0,1.496112466E0
3.380801961E0,-2.289049625E0,-4.179770470E0,1.641172647E0
3.391497961E0,-3.073115826E0,-6.748486519E0,2.184527159E0
3.400455961E0,-3.725870609E0,-9.561215401E0,2.893567562E0
3.410250961E0,-4.808312416E0,-1.269345284E1,2.861735582E0
3.420419961E0,-4.068377495E0,-1.515547657E1,3.163338423E0
3.430236961E0,-2.028774977E0,-1.358859825E1,3.128150940E0
3.440358961E0,-2.018424511E0,-9.303675652E0,2.609171391E0
3.450239961E0,-1.740653872E0,-5.412263870E0,2.221826792E0
3.460638961E0,-1.249037027E0,-2.835429192E0,1.543621182E0
3.470380961E0,-8.177645802E-1,-1.215565681E0,1.067161679E0
3.480241961E0,-5.144636631E-1,-2.060308456E-1,1.003789544E0
3.490374961E0,-3.701338768E-1,4.130764008E-1,1.030942917E0
3.500262961E0,-3.321887851E-1,6.792945862E-1,1.050685167E0
3.511053961E0,-2.991366982E-1,6.860723495E-1,1.019675016E0
3.520536961E0,-2.236693501E-1,5.592546463E-1,9.155641198E-1
3.530304961E0,-1.680652499E-1,5.893688202E-1,8.077607155E-1
3.540580961E0,-1.909732223E-1,8.182458878E-1,6.704173684E-1
3.550567961E0,-1.612275243E-1,1.116937637E0,5.082979202E-1
3.560542961E0,-3.182893991E-2,1.338716507E0,2.493201494E-1
3.570252961E0,9.261864424E-2,1.608177185E0,-2.301121950E-1
3.580357961E0,1.530705094E-1,1.761278629E0,-7.198983431E-1
3.590416961E0,8.780336380E-2,1.746947765E0,-1.106170893E0
3.600291961E0,-1.852934361E-1,1.514282227E0,-1.138823986E0
3.610779961E0,-2.495098710E-1,1.089095116E0,-9.135085344E-1
3.620379961E0,-1.864966750E-1,7.689695358E-1,-8.585902452E-1
3.630235961E0,-1.422162056E-1,5.359382629E-1,-9.468979836E-1
3.640235961E0,4.991054535E-2,3.820762634E-1,-1.071090221E0
3.650353961E0,1.313391328E-1,3.755140305E-1,-1.171400428E0
3.660275961E0,1.747626662E-1,4.032468796E-1,-1.230587602E0
3.670720961E0,2.252206802E-1,5.362720490E-1,-1.186807394E0
3.680251961E0,3.152879477E-1,8.131685257E-1,-1.076670170E0
3.690302961E0,2.354220152E-1,1.248035431E0,-8.139754534E-1
3.700335961E0,2.671205997E-2,1.757898808E0,-6.441426277E-1
3.710285961E0,-2.386100292E-1,2.266776085E0,-5.231568813E-1
3.720393961E0,-5.881888866E-1,2.783175468E0,-4.189449549E-1
3.730285961E0,-1.110462427E0,3.262290955E0,-6.032441854E-1
3.740249961E0,-1.793374538E0,3.767490387E0,-1.849633574E0
3.751306961E0,-2.425473928E0,4.002964020E0,-2.183921814E0
3.760250961E0,-2.900734425E0,4.184375763E0,-1.944414616E0
3.770340961E0,-3.378010273E0,4.335809231E0,-1.561612844E0
3.780329961E0,-3.451286793E0,4.287709236E0,-1.258177042E0
3.790342961E0,-3.684364796E0,4.276049614E0,-8.782627583E-1
3.800272961E0,-3.749856472E0,4.073506355E0,-2.005078793E-1
3.810251961E0,-3.515000582E0,3.575839043E0,7.036287785E-1
3.820536961E0,-3.232961416E0,2.853458405E0,1.526969910E0
3.830206961E0,-3.055334091E0,2.172587395E0,2.978477955E0
3.840309961E0,-2.569136858E0,2.006235123E-1,3.448294401E0
3.850256961E0,-2.010436773E0,-2.443194389E0,4.081004620E0
3.860471961E0,-1.789845705E0,-5.214829445E0,4.838757992E0
3.870259961E0,-1.753769994E0,-8.416359901E0,3.853938341E0
3.880386961E0,-1.851394415E0,-1.171102905E1,1.889946461E0
3.890242961E0,-2.337564707E0,-1.421516037E1,2.987251282E-1
3.900229961E0,-1.947080851E0,-1.521400070E1,-6.549024582E-1
3.910213961E0,-1.244049311E0,-1.290463352E1,-4.825515747E-1
3.920310961E0,-2.118959427E0,-8.644413948E0,2.286276817E-1
3.930281961E0,-2.082323313E0,-5.040399551E0,4.810867310E-1
3.941019961E0,-1.321543813E0,-2.711657524E0,7.751922607E-1
3.950193961E0,-7.192971706E-1,-9.949197769E-1,7.823643684E-1
3.960316961E0,-1.452206969E-1,1.128196716E-1,5.235159397E-1
3.970404961E0,1.995213032E-1,9.176750183E-1,3.072304726E-1
3.980244961E0,2.132286429E-1,1.462319851E0,4.611642361E-1
3.992035961E0,2.036444545E-1,1.812061310E0,3.589973450E-1
4.000284961E0,1.927843690E-1,1.942986488E0,1.761298180E-1
4.010300961E0,1.527367830E-1,1.871583939E0,3.944125175E-1
4.020197961E0,2.015540004E-1,1.724929810E0,7.406764030E-1
4.030229961E0,4.920938015E-1,1.745308399E0,8.233580589E-1
4.040308961E0,9.087129235E-1,1.932714462E0,-1.557750702E-1
4.050304961E0,1.245653152E0,2.211914062E0,-1.358600855E0
4.060284961E0,1.475655317E0,2.546180248E0,-2.167048693E0
4.070261961E0,1.471390367E0,3.061330318E0,-2.952390432E0
4.080472961E0,1.383979559E0,3.680864334E0,-3.799030542E0
4.090236961E0,1.144656897E0,4.174425125E0,-4.137036800E0
4.100511961E0,8.219342828E-1,4.401319504E0,-3.610848665E0
4.110218961E0,5.236848593E-1,4.456125736E0,-2.748258829E0
4.120275961E0,2.395455837E-1,4.417943954E0,-1.686670542E0
4.131108961E0,-2.007520199E-2,4.474497318E0,-7.774350643E-1
4.140264961E0,-3.482555151E-1,4.628877640E0,-1.192355156E-1
4.150338961E0,-5.601360202E-1,4.787039280E0,4.286274910E-1
4.160339961E0,-7.736372948E-1,5.059708118E0,7.249737978E-1
4.170243961E0,-7.792536616E-1,5.233538628E0,1.006612778E0
4.180424961E0,-7.411843538E-1,5.423705101E0,1.130776286E0
4.190228961E0,-7.034458518E-1,5.596509933E0,1.232668996E0
4.200383961E0,-7.070172429E-1,5.722078323E0,1.395732403E0
4.211260961E0,-7.477613091E-1,5.616365433E0,1.599653482E0
4.220379961E0,-9.138336182E-1,5.089559555E0,1.648437619E0
4.230219961E0,-1.032884121E0,3.994784832E0,1.561250925E0
4.240324961E0,-1.164353609E0,2.409986496E0,1.415919542E0
4.250322961E0,-1.248963714E0,3.377065659E-1,1.362040758E0
4.260304961E0,-1.493352294E0,-2.403686523E0,1.369250178E0
4.270246961E0,-2.010347605E0,-5.811178207E0,1.414270520E0
4.280277961E0,-3.372952700E0,-1.337398148E1,2.137884140E0
4.290530961E0,-3.706039429E0,-1.611505127E1,3.031940699E0
4.300354961E0,-3.080639601E0,-1.697826004E1,4.082743645E0
4.310369961E0,-2.506418705E0,-1.403695297E1,3.932410717E0
4.321307961E0,-2.210292339E0,-8.507037163E0,2.381190777E0
4.330260961E0,-7.834283113E-1,-4.327529907E0,-9.932212830E-1
4.340257961E0,-5.193499923E-1,-1.559995651E0,-2.541775227E0
4.350403961E0,-1.434016466E0,4.723834991E-2,-1.602173805E0
4.360340961E0,-1.547717333E0,6.527547836E-1,-6.158453226E-1
4.370329961E0,-1.258242607E0,9.817247391E-1,2.387579679E-1
4.380215961E0,-9.609654546E-1,1.095386505E0,6.948001385E-1
4.390247961E0,-5.722665191E-1,1.038536072E0,8.399357796E-1
4.400273961E0,-1.152139306E-1,6.579446793E-1,8.095352650E-1
4.410293961E0,3.147509694E-1,-8.159732819E-2,6.944290400E-1
4.420261961E0,5.501245260E-1,-8.263187408E-1,5.251700878E-1
4.430231961E0,5.942728519E-1,-1.473832130E0,-5.711913109E-3
4.440379961E0,6.237743497E-1,-1.975799561E0,-1.141576648E0
4.450386961E0,6.810834408E-1,-1.891018867E0,-2.657655716E0
4.460319961E0,5.976665616E-1,-1.036130905E0,-4.085953712E0
4.470321961E0,2.552613020E-1,8.895206451E-2,-4.400287628E0
4.480291961E0,-1.152919531E-1,6.858215332E-1,-3.382667542E0
4.490419961E0,-1.995475888E-1,8.753108978E-1,-2.218352795E0
4.501053961E0,-1.485702395E-1,9.514951706E-1,-1.266355515E0
4.510280961E0,-1.860427856E-1,1.177292824E0,-6.430647373E-1
4.520677961E0,-2.305681109E-1,1.417232513E0,-2.286713123E-1
4.530270961E0,-3.329071403E-1,1.615908623E0,3.116607666E-3
4.540456961E0,-4.766510129E-1,1.790333271E0,9.789979458E-2
4.550264961E0,-6.385522485E-1,1.991112232E0,2.806313038E-1
4.560434961E0,-8.199617863E-1,2.268856525E0,5.436697006E-1
4.570906961E0,-9.799047112E-1,2.646488667E0,6.596703529E-1
4.580386961E0,-1.072609305E0,3.093571186E0,6.823920012E-1
4.590249961E0,-1.065423012E0,3.645517349E0,5.266921520E-1
4.600259961E0,-9.886802435E-1,4.168028355E0,1.310456991E-1
4.610599961E0,-8.212321997E-1,4.528065681E0,-5.150865316E-1
4.620325961E0,-7.351514697E-1,4.702445984E0,-1.439805984E0
4.630198961E0,-1.005849004E0,4.769350529E0,-1.651310682E0
4.640222961E0,-1.565023541E0,4.982454300E0,-1.035191298E0
4.650863961E0,-2.138454676E0,5.312867641E0,-1.386730671E-1
4.660276961E0,-2.450539589E0,5.644711494E0,6.712737083E-1
4.670273961E0,-2.629570961E0,5.858883858E0,1.344796777E0
4.680211961E0,-2.761583805E0,5.813178539E0,1.750979304E0
4.690276961E0,-2.871089697E0,5.207954407E0,1.977937460E0
4.700266961E0,-3.048592329E0,3.880406857E0,1.680429697E0
4.710541961E0,-3.214384079E0,2.115224838E0,9.775071144E-1
4.720247961E0,-3.186966896E0,-9.430446625E-1,-3.214285374E-1
4.730228961E0,-2.921695232E0,-5.080422401E0,-6.340656281E-1
4.740354961E0,-2.812045574E0,-9.997552872E0,5.212059021E-1
4.750287961E0,-3.355911732E0,-1.497204018E1,2.095322609E0
4.760371961E0,-3.184289694E0,-1.870812607E1,1.879006505E0
4.770288961E0,-6.198945045E-1,-1.832720757E1,-2.361139297E0
4.780246961E0,-3.670119047E-1,-1.228657722E1,-2.420913935E0
4.790458961E0,-1.447921872E0,-6.200293541E0,-1.463126421E0
4.800273961E0,-1.476879001E0,-2.926965714E0,-4.802532196E-1
4.810268961E0,-1.010904908E0,-1.010680199E0,6.721000671E-1
4.820252961E0,-4.667260647E-1,1.137294769E0,5.197288990E-1
4.830233961E0,-3.674138188E-1,1.762383938E0,9.984946251E-2
4.840247961E0,-4.638873339E-1,2.173482895E0,-6.326479912E-1
4.850275961E0,-6.332046390E-1,2.050488949E0,-1.070909500E0
4.860359961E0,-5.599681139E-1,1.291044712E0,-1.173224449E0
4.870260961E0,-2.742763758E-1,3.812065125E-1,-1.015015602E0
4.880229961E0,8.763587475E-2,9.465217590E-2,-7.264890671E-1
4.890380961E0,3.551139832E-1,1.563320160E-1,-8.289737701E-1
4.900589961E0,5.204966068E-1,4.931936264E-1,-1.048417807E0
4.910294961E0,6.328860521E-1,1.037019730E0,-1.122772694E0
4.920275961E0,7.280348539E-1,1.543350220E0,-1.063131094E0
4.930234961E0,8.105080128E-1,2.187346935E0,-1.348582983E0
4.940322961E0,8.327616453E-1,2.793218613E0,-1.671012402E0
4.950275961E0,8.491053581E-1,3.347856522E0,-2.067461014E0
4.960255961E0,8.757884502E-1,3.901936531E0,-2.490462780E0
4.970277961E0,7.276040316E-1,4.246753693E0,-2.573706627E0
4.980266961E0,4.680211544E-1,4.504712582E0,-2.255286694E0
4.990258961E0,1.850911379E-1,4.648805141E0,-1.800694704E0
5.000335961E0,-1.555976868E-1,4.804315090E0,-1.294498682E0
5.010239961E0,-6.578381658E-1,4.914686680E0,-8.137607574E-1
5.021572961E0,-1.104484320E0,4.956560135E0,-4.295241833E-1
5.030271961E0,-1.354723573E0,5.057978630E0,-7.536458969E-2
5.040510961E0,-1.396801829E0,5.076409340E0,2.097524405E-1
5.050293961E0,-1.432227135E0,4.959383965E0,2.481471300E-1
5.060260961E0,-1.599962950E0,4.713522911E0,-6.044948101E-2
5.070204961E0,-1.592295527E0,4.483422756E0,-6.837818623E-1
5.080217961E0,-1.169144392E0,4.373695850E0,-5.153938532E-1
5.090236961E0,-8.106307983E-1,4.046149731E0,3.916419744E-1
5.100267961E0,-7.513388991E-1,3.286216736E0,1.324551225E0
5.110289961E0,-9.067542553E-1,2.026045799E0,1.714918733E0
5.120378961E0,-1.018128395E0,2.555675507E-1,1.915109873E0
5.130205961E0,-1.201026201E0,-2.002786636E0,1.996990442E0
5.140316961E0,-1.764960885E0,-4.654468536E0,2.134391546E0
5.150247961E0,-2.357253551E0,-7.645499229E0,2.261836767E0
5.160405961E0,-2.248464108E0,-1.081948280E1,2.568588734E0
5.170836961E0,-1.415035725E0,-1.373220253E1,3.254557848E0
5.180364961E0,-1.201783061E0,-1.543440342E1,4.151179314E0
5.190255961E0,-1.477226019E0,-1.485748768E1,4.383801937E0
5.200251961E0,-1.823034644E0,-1.095474720E1,3.597723961E0
5.210217961E0,-1.680729508E0,-6.355494499E0,2.567181110E0
5.220728961E0,-1.185829163E0,-3.372055054E0,1.725544572E0
5.230257961E0,-8.290835023E-1,-1.494898796E0,1.171329021E0
5.240395961E0,-7.994030118E-1,-1.763315201E-1,8.869535923E-1
5.251673961E0,-8.741998672E-1,6.333637238E-1,6.565095782E-1
5.260588961E0,-9.349015355E-1,9.746398926E-1,4.114547968E-1
5.270265961E0,-8.040177226E-1,9.009962082E-1,-5.333232880E-2
5.280390961E0,-6.083680391E-1,3.873205185E-1,-5.283050537E-1
5.290264961E0,-5.781971216E-1,-2.255620956E-1,-9.046223164E-1
5.300483961E0,-6.643635035E-1,-5.539169312E-1,-1.088936210E0
5.310923961E0,-7.485571504E-1,-6.160058975E-1,-1.146139979E0
5.320258961E0,-6.589394808E-1,-5.078897476E-1,-1.085752964E0
5.330313961E0,-4.745286107E-1,-2.547063828E-1,-1.184147716E0
5.340305961E0,-2.901976109E-1,1.350879669E-1,-1.485620856E0
5.350325961E0,2.795835733E-1,5.917205811E-1,-9.542208910E-1
5.360383961E0,5.091601610E-1,4.740333557E-1,-8.921821117E-1
5.370247961E0,5.279089212E-1,4.957780838E-1,-7.348930836E-1
5.380316961E0,2.124637365E-1,7.367162704E-1,-3.818132877E-1
5.390271961E0,-1.125452518E-1,1.039550781E0,-2.121055126E-2
5.400468961E0,-3.273483515E-1,1.338108063E0,1.649216413E-1
5.410280961E0,-4.539999962E-1,1.624044895E0,2.002249956E-1
5.420457961E0,-4.614338875E-1,1.880929947E0,4.568028450E-2
5.430480961E0,-4.405696392E-1,2.133697510E0,-1.679199934E-1
5.440272961E0,-4.185795784E-1,2.332364559E0,-2.825030088E-1
5.450293961E0,-4.761625528E-1,2.587278843E0,-3.019123077E-1
5.460329961E0,-6.370756030E-1,2.975484371E0,-1.289963722E-1
5.470304961E0,-8.444740176E-1,3.340022087E0,2.996647358E-2
5.480381961E0,-1.108497500E0,3.745586395E0,1.899778843E-2
5.490289961E0,-1.499990463E0,4.127593517E0,-3.802363873E-1
5.500318961E0,-2.120493889E0,4.487061024E0,-1.172031164E0
5.510402961E0,-2.765848398E0,4.658289433E0,-2.363000154E0
5.520267961E0,-3.223689079E0,4.954820156E0,-2.317871571E0
5.530509961E0,-3.479151487E0,5.432381630E0,-1.255333424E0
5.540386961E0,-3.235089779E0,5.866879463E0,-1.665067673E-1
5.550369961E0,-2.957039595E0,6.169810295E0,8.121175766E-1
5.560405961E0,-2.744640827E0,6.180526733E0,1.561773419E0
5.570310961E0,-2.541880131E0,5.862569809E0,1.928161144E0
5.580462961E0,-2.353351116E0,5.381703377E0,2.734406471E0
5.590467961E0,-2.431448460E0,4.306137562E0,4.298898697E0
5.600325961E0,-2.408802509E0,2.526089191E0,2.894939184E0
5.610354961E0,-2.634165764E0,1.150674820E-1,-3.297176361E-1
5.620254961E0,-2.867044449E0,-2.884865761E0,-2.079540253E0
5.630242961E0,-2.698317289E0,-6.981842041E0,-1.610160828E0
5.640375961E0,-3.167634010E0,-1.170517349E1,3.350734711E-3
5.650252961E0,-4.116885185E0,-1.661314774E1,7.012550831E-1
5.660236961E0,-3.788000107E0,-2.021295929E1,4.188396931E-1
5.670297961E0,-1.643897057E0,-1.950798035E1,4.492416382E-1
5.680223961E0,-1.109865427E0,-1.481309223E1,5.573239326E-1
5.690255961E0,-1.333326936E0,-9.582523346E0,1.933465004E-1
5.700266961E0,-1.039085627E0,-5.541931152E0,9.379391670E-1
5.710315961E0,-7.866876125E-1,-2.402699471E0,1.922159195E0
5.720207961E0,-5.447714329E-1,-6.532764435E-2,2.472897768E0
5.730218961E0,-3.293907642E-1,1.726300240E0,2.610806942E0
5.740215961E0,-1.764642000E-1,2.970195770E0,2.593674421E0
5.750226961E0,-1.933658123E-1,3.847910404E0,2.290286303E0
5.760412961E0,-1.635315418E-1,4.196685791E0,1.684406757E0
5.770337961E0,-1.124535799E-1,4.114382267E0,-7.146120071E-2
5.780244961E0,-4.409670830E-2,3.674350262E0,-2.628655672E0
5.790307961E0,1.473571062E-1,2.481413364E0,-3.354415894E0
5.800482961E0,4.712026119E-1,1.334917068E0,-2.939160109E0
5.810413961E0,1.108835220E0,5.462808609E-1,-2.969413519E0
5.820241961E0,1.639705300E0,-3.480243683E-2,-2.919588089E0
5.830312961E0,2.003945589E0,-1.259794235E-1,-2.353565931E0
5.840323961E0,1.933491468E0,4.524765015E-1,-1.563081741E0
5.850473961E0,1.642162800E0,1.268529415E0,-9.608516693E-1
5.860672961E0,1.310179830E0,2.075183392E0,-3.779258728E-1
5.870272961E0,1.010277390E0,2.659162521E0,1.145935059E-1
5.880476961E0,3.545304537E-1,3.665256500E0,6.894521713E-1
5.890422961E0,1.673281193E-1,3.987636566E0,6.339311600E-1
5.900746961E0,-1.755164862E-1,4.326383114E0,5.804241896E-1
5.910701961E0,-3.876057863E-1,4.546864510E0,3.479700089E-1
5.921495961E0,-8.850866556E-1,4.730367184E0,8.741044998E-2
5.930323961E0,-1.428008080E0,4.771301746E0,-2.685445547E-1
5.940442961E0,-1.869082451E0,4.620847225E0,-5.604506731E-1
5.950234961E0,-2.161593914E0,4.392855644E0,-8.886961937E-1
5.960639961E0,-2.596791506E0,4.282945156E0,-1.958617568E0
5.970255961E0,-2.925528049E0,4.347811222E0,-4.320931911E0
5.980621961E0,-2.159034014E0,4.587440491E0,-4.364047050E0
5.990236961E0,-1.469191074E0,5.207150459E0,-7.845857143E-1
6.000969961E0,-1.056555271E0,5.190334320E0,1.379256964E0
6.010348961E0,-8.420233727E-1,4.464525700E0,1.383545041E0
6.020560961E0,-6.994699240E-1,3.169412613E0,1.617607594E0
6.030247961E0,-3.969625235E-1,1.344077110E0,1.747864485E0
6.040638961E0,9.594857693E-2,-1.277557373E0,1.883725286E0
6.050262961E0,6.459912062E-1,-5.194013596E0,2.118254423E0
6.060592961E0,1.300589204E0,-1.004457283E1,2.714953899E0
6.070303961E0,1.263100386E0,-1.526315117E1,3.894898415E0
6.080382961E0,-1.555304527E-1,-1.889373589E1,5.269335747E0
6.090369961E0,-1.331734419E0,-1.910575485E1,5.843321323E0
6.100395961E0,-2.569758177E0,-1.461856747E1,5.435660362E0
6.110297961E0,-2.201960087E0,-9.000727654E0,3.864068985E0
6.120300961E0,-1.460085630E0,-5.323375702E0,2.125052452E0
6.130297961E0,-8.803101778E-1,-2.831814766E0,-9.538432360E-1
6.140246961E0,-8.208497763E-1,-7.234621048E-1,-4.510630131E0
6.150328961E0,-1.099606395E0,-1.037845612E-1,-2.402436256E0
6.160441961E0,-1.444468975E0,-1.679906845E-1,-5.505422354E-1
6.170249961E0,-1.563965559E0,4.379272461E-3,9.582972527E-2
6.180225961E0,-1.538847327E0,2.092447281E-1,5.254828930E-1
6.190241961E0,-1.510459781E0,4.201498032E-1,6.783195138E-1
6.201510961E0,-1.570255995E0,5.796451569E-1,6.342486143E-1
6.210376961E0,-1.668869257E0,6.237096786E-1,6.120336056E-1
6.220263961E0,-1.794237256E0,5.695400238E-1,6.650731564E-1
6.230191961E0,-1.861789942E0,4.479827881E-1,7.781181931E-1
6.240388961E0,-1.840970278E0,3.258361816E-1,8.363233805E-1
6.250319961E0,-1.717868209E0,2.321100235E-1,8.256377578E-1
6.260307961E0,-1.553206205E0,2.564496994E-1,7.361463308E-1
6.270216961E0,-1.415644407E0,4.226655960E-1,5.597697496E-1
6.280214961E0,-1.257303953E0,7.032527924E-1,2.055450678E-1
6.290533961E0,-9.718126059E-1,9.842395782E-1,-2.071882486E-1
6.300280961E0,-6.490961313E-1,1.115257263E0,-5.880645514E-1
6.310234961E0,-4.651180506E-1,1.229261398E0,-9.571423531E-1
6.320313961E0,-3.868545294E-1,1.345898628E0,-1.195040703E0
6.330265961E0,-2.619073391E-1,1.485215664E0,-1.331822395E0
6.340222961E0,-8.321213722E-2,1.585021019E0,-1.624700785E0
6.350417961E0,1.505932808E-1,1.694305897E0,-2.011575460E0
6.360267961E0,3.445637226E-1,1.757600307E0,-2.392014980E0
6.370306961E0,3.300409317E-1,1.832515717E0,-2.287215710E0
6.380292961E0,-3.862237930E-2,1.973872662E0,-1.630955815E0
6.390242961E0,-5.338623524E-1,2.139528751E0,-9.133938551E-1
6.400270961E0,-9.148107767E-1,2.255291939E0,-4.543277025E-1
6.410384961E0,-1.151209235E0,2.423611641E0,-1.671417952E-1
6.420262961E0,-1.055380106E0,2.970786572E0,-6.835254431E-1
6.430277961E0,-8.383315802E-1,3.194601059E0,-1.349103451E0
6.440261961E0,-9.396566153E-1,3.534225464E0,-1.736598015E0
6.450405961E0,-1.528403401E0,4.011349678E0,-1.223437071E0
6.460453961E0,-2.130752087E0,4.597760677E0,6.762599945E-2
6.470239961E0,-2.556019306E0,5.129337311E0,1.318129659E0
6.480238961E0,-2.829068661E0,5.553744316E0,2.438421965E0
6.490283961E0,-2.931081295E0,5.741243839E0,3.308048725E0
6.500362961E0,-2.791751623E0,5.461431026E0,3.753232479E0
6.510337961E0,-2.531648636E0,4.645177364E0,3.951945066E0
6.520314961E0,-2.289364100E0,3.320216179E0,3.825357676E0
6.530232961E0,-2.190618753E0,1.548110485E0,3.397467136E0
6.540291961E0,-2.012457609E0,-9.186334610E-1,2.718891621E0
6.550299961E0,-1.843957424E0,-4.398130417E0,2.661911964E0
6.560250961E0,-1.705915928E0,-8.739452362E0,3.115358114E0
6.570337961E0,-1.763531089E0,-1.322745323E1,3.207562208E0
6.580213961E0,-5.264761448E-1,-1.759576607E1,1.612318754E0
6.590269961E0,1.117076635E0,-1.913825417E1,-5.641400814E-1
6.600456961E0,-1.541421413E-1,-1.520905972E1,-1.270624399E0
6.610425961E0,-1.591741800E0,-9.759840012E0,-2.049901485E0
6.620254961E0,-1.182460427E0,-5.912842751E0,-2.136888504E0
6.630258961E0,-4.284517765E-1,-3.103912354E0,-1.884945154E0
6.640234961E0,1.579632759E-1,-1.044586182E0,-1.600055933E0
6.650245961E0,5.031039715E-1,4.838733673E-1,-1.265792847E0
6.660233961E0,4.821069241E-1,1.680812359E0,-5.924549103E-1
6.670368961E0,2.689448595E-1,2.611832619E0,3.883337975E-2
6.680433961E0,9.484767914E-3,3.359044552E0,3.677508831E-1
6.690231961E0,-3.028564453E-1,3.797237396E0,3.288793564E-1
6.700343961E0,-4.771401882E-1,3.999512196E0,1.730575562E-1
6.710245961E0,-3.261138201E-1,3.793198109E0,-3.296813965E-1
6.720250961E0,1.401247978E-1,3.201707363E0,-1.482943535E0
6.730227961E0,3.894308805E-1,2.319365501E0,-1.684878349E0
6.740387961E0,3.196386099E-1,1.669780731E0,-1.225775480E0
6.750462961E0,1.987234354E-1,1.199341774E0,-6.920945644E-1
6.760299961E0,1.269899607E-1,1.023904800E0,-3.380753994E-1
6.770279961E0,9.793424606E-2,1.144313812E0,-1.496441364E-1
6.780230961E0,1.132547855E-1,1.499594212E0,4.538464546E-2
6.790358961E0,6.415390968E-2,2.039273262E0,2.939603329E-1
6.800254961E0,-4.669857025E-2,2.548572063E0,4.028300047E-1
6.810314961E0,-8.417284489E-2,3.060790539E0,4.972853661E-1
6.820498961E0,-3.497421741E-2,3.480875015E0,3.687933683E-1
6.830333961E0,4.172122478E-2,3.741258621E0,1.898541451E-1
6.840269961E0,6.275665760E-2,4.031766415E0,-1.990685463E-1
6.850234961E0,8.923947811E-2,4.209626675E0,-5.919572115E-1
6.860330961E0,1.167314053E-1,4.275634289E0,-8.359532356E-1
6.870453961E0,1.795771122E-1,4.206114292E0,-9.392659664E-1
6.880386961E0,4.296231270E-2,4.007217884E0,-9.977803230E-1
6.890245961E0,-3.409044743E-1,3.281534195E0,-9.913661480E-1
6.900337961E0,-4.827147722E-1,2.269145489E0,-1.295222878E0
6.910357961E0,-5.978623629E-1,1.511971474E0,-1.487395406E0
6.920410961E0,-7.807704210E-1,1.481894970E0,-1.108188748E0
6.930225961E0,-7.410836220E-1,2.011402130E0,-7.788240910E-2
6.940219961E0,-8.242794275E-1,2.687305450E0,1.174618363E0
6.950694961E0,-1.186949015E0,3.130370617E0,2.036309719E0
6.960828961E0,-1.166747808E0,2.638582230E0,1.567174315E0
6.970310961E0,-1.049577117E0,1.689123631E0,1.163781047E0
6.980400961E0,-8.572740555E-1,2.673759460E-1,7.817401886E-1
6.990749961E0,-4.341517687E-1,-2.076098442E0,3.771505356E-1
7.000827961E0,4.243087769E-1,-5.617619514E0,2.123128176E-1
7.010293961E0,1.101012468E0,-1.003731346E1,3.434920311E-1
7.020664961E0,1.448546648E0,-1.338645840E1,1.140376806E0
7.031094961E0,2.354457378E-1,-1.472984886E1,1.988014340E0
7.041028961E0,-1.509217262E0,-1.314338017E1,6.004800797E-1
7.050331961E0,-4.258635521E0,-8.802270889E0,-6.690053940E0
7.060741961E0,-4.086072922E0,-5.411901474E0,-7.417695522E0
7.070438961E0,-1.740879893E0,-5.124567032E0,-2.042064667E0
7.080555961E0,-1.082478285E0,-4.526878357E0,2.574301958E-1
7.090246961E0,-7.897868156E-1,-4.039113045E0,1.796288729E0
7.100779961E0,-7.814166546E-1,-3.444289207E0,2.272873878E0
7.110305961E0,-9.358853102E-1,-2.642085075E0,2.207355499E0
7.121276961E0,-1.004987478E0,-1.887907028E0,1.960439563E0
7.130213961E0,-1.047219515E0,-1.039867401E0,1.585166574E0
7.140340961E0,-9.881908894E-1,-1.924972534E-1,1.207521200E0
7.150283961E0,-9.763207436E-1,5.824527740E-1,8.996249437E-1
7.160265961E0,-1.017389536E0,1.231237411E0,6.278960109E-1
7.170256961E0,-1.061078548E0,1.711522579E0,4.350780249E-1
7.180337961E0,-1.148331523E0,2.047000885E0,3.365644813E-1
7.190559961E0,-1.222823381E0,2.295272827E0,2.155681849E-1
7.200245961E0,-1.336234927E0,2.507621288E0,1.156730652E-1
7.210261961E0,-1.444074631E0,2.598090649E0,6.717610359E-2
7.220282961E0,-1.555245280E0,2.642799377E0,2.382063866E-2
7.230231961E0,-1.692662001E0,2.637476444E0,3.684508801E-2
7.240346961E0,-1.826115370E0,2.637763023E0,-6.492137909E-4
7.250697961E0,-1.935131550E0,2.654055119E0,-1.351380348E-1
7.260449961E0,-1.957770586E0,2.705997467E0,-4.388171434E-1
7.270276961E0,-1.635630965E0,2.897871494E0,-1.263235927E0
7.280298961E0,-1.069934249E0,3.006489277E0,-2.375134230E0
7.290504961E0,-2.885130644E-1,2.753454208E0,-3.503091574E0
7.300397961E0,2.820097208E-1,2.430671215E0,-4.326046944E0
7.311013961E0,1.586551666E-1,2.373482227E0,-3.960380077E0
7.320272961E0,-5.007194281E-1,2.583577633E0,-2.489980221E0
7.330284961E0,-1.148577690E0,2.827620983E0,-1.247204542E0
7.340246961E0,-1.427831650E0,2.798705101E0,-3.818408251E-1
7.350234961E0,-1.668148398E0,2.890512466E0,1.127600670E-2
7.360278961E0,-1.911794782E0,3.040759563E0,4.752528071E-1
7.372065961E0,-1.947726846E0,3.172846317E0,8.186885715E-1
7.380250961E0,-1.954865098E0,3.332185268E0,1.034534574E0
7.390255961E0,-1.911744952E0,3.486226082E0,1.211357355E0
7.400377961E0,-1.817113638E0,3.491141796E0,1.347710609E0
7.410289961E0,-1.670841575E0,3.253664017E0,1.397046208E0
7.420276961E0,-1.436674953E0,2.705357075E0,1.220275164E0
7.430249961E0,-9.761017561E-1,1.781446457E0,4.229681492E-1
7.440514961E0,2.394912243E-1,1.898889542E-1,-3.268271923E0
7.450291961E0,1.136428833E0,-1.671881676E0,-8.242689133E0
7.460379961E0,-2.991229296E-1,-2.572172165E0,-5.326253414E0
7.470306961E0,-1.792449474E0,-3.017211914E0,-2.899032831E-1
7.480517961E0,-1.711244345E0,-5.366456985E0,3.644627333E0
7.490223961E0,-1.734284163E0,-5.398124695E0,2.685107708E0
7.500486961E0,2.824089527E-1,-9.083129883E0,-3.765518665E-1
7.510231961E0,5.779910088E-1,-1.067537308E1,-2.894394159E0
7.520973961E0,-2.165839672E-1,-1.122995472E1,-3.342367887E0
7.530242961E0,-1.126242638E0,-9.857023239E0,-2.064412117E0
7.540383961E0,-1.457576752E0,-7.245012283E0,-2.645673752E-1
7.550240961E0,-1.358027697E0,-4.918304443E0,9.971771240E-1
7.563124961E0,-1.077015877E0,-3.196399689E0,1.479706168E0
7.580231961E0,-4.457366467E-1,-1.417399406E0,1.042575121E0
7.590262961E0,-3.469170332E-1,-1.147409439E0,3.240284920E-1
7.600643961E0,-9.689508677E-1,-6.567449570E-1,-4.853663445E-1
7.610299961E0,-1.901119471E0,9.736824036E-2,-2.098199368E0
7.620340961E0,-1.915067554E0,7.814493179E-1,-3.502540350E0
7.630237961E0,-1.435410380E0,1.064670563E0,-3.426185608E0
7.640231961E0,-9.876111746E-1,1.202384949E0,-2.558894157E0
7.650229961E0,-9.143451452E-1,1.692811012E0,-2.101145267E0
7.660248961E0,-9.184598923E-1,2.356630325E0,-1.763237953E0
7.670225961E0,-9.551954269E-1,3.025610924E0,-1.102729559E0
7.680336961E0,-1.047928810E0,3.558493614E0,-4.886776209E-1
7.690270961E0,-1.152471662E0,4.029228210E0,-2.774930000E-2
7.700458961E0,-1.149621487E0,4.503997803E0,4.256399870E-1
7.710220961E0,-1.058300018E0,4.777870178E0,9.035817981E-1
7.720759961E0,-1.043059826E0,5.112598419E0,1.303850174E0
7.730274961E0,-9.426217675E-1,5.332636833E0,1.530197978E0
7.740916961E0,-8.104968667E-1,5.509847641E0,1.560341001E0
7.750218961E0,-6.377817392E-1,5.569879532E0,1.479669929E0
7.760344961E0,-4.135887623E-1,5.392715454E0,1.397027612E0
7.770250961E0,-1.465765238E-1,4.970772266E0,1.202101231E0
7.780277961E0,1.802394390E-1,4.352243900E0,8.637095690E-1
7.790238961E0,5.183415413E-1,3.622436523E0,3.270885944E-1
7.800227961E0,9.521707296E-1,2.862175465E0,-3.246129751E-1
7.810224961E0,1.395758271E0,2.221331596E0,-1.022916317E0
7.820395961E0,1.683422089E0,1.714706898E0,-1.327382445E0
7.830305961E0,1.894852877E0,1.243531227E0,-1.357786417E0
7.840255961E0,2.075079441E0,9.847211838E-1,-1.675725698E0
7.850287961E0,2.191518545E0,1.044600487E0,-2.644184589E0
7.860290961E0,2.138588667E0,1.446533203E0,-4.238112450E0
7.870229961E0,1.592322469E0,1.906256676E0,-5.648527622E0
7.880312961E0,6.453903913E-1,2.050210476E0,-6.982382298E0
7.890346961E0,-4.227981567E-1,1.658102989E0,-7.775692463E0
7.900207961E0,-7.763181925E-1,9.939355850E-1,-7.115764618E0
7.910298961E0,-9.765412807E-1,3.901710510E-1,-5.130321026E0
7.920385961E0,-6.647051573E-1,-2.714176178E-1,-1.543133616E0
7.930323961E0,-9.099674225E-2,-4.759750366E-1,1.755615234E0
7.940277961E0,6.859803200E-2,2.089338303E-1,3.171326876E0
7.950215961E0,-1.110248566E-1,4.779443741E-1,3.540404081E0
7.960409961E0,-4.319154024E-1,2.345571518E-1,3.432266235E0
7.970523961E0,-6.628419161E-1,-4.811506271E-1,3.256552458E0
7.980277961E0,-5.530740023E-1,-1.545423508E0,2.906491756E0
7.990256961E0,-6.990075111E-3,-2.713938713E0,2.435524464E0
8.000228961E0,5.404683352E-1,-4.038499832E0,1.989080191E0
8.010340961E0,8.420332670E-1,-5.311517715E0,1.689209223E0
8.020426961E0,1.457713366E0,-6.633234978E0,1.665794373E0
8.030284961E0,1.509935498E0,-8.771470070E0,1.852006316E0
8.040255961E0,8.225334883E-1,-8.764326096E0,1.981049895E0
8.050192961E0,-2.750014067E-1,-7.915849686E0,1.458815217E0
8.060362961E0,-1.079792023E0,-6.700488091E0,7.239642143E-1
8.070310961E0,-1.271229267E0,-5.553943634E0,5.675780773E-2
8.080294961E0,-1.290143967E0,-4.414333344E0,-5.608984232E-1
8.090252961E0,-1.175061703E0,-3.291915894E0,-8.148576021E-1
8.100306961E0,-9.837799072E-1,-2.242230415E0,-8.613576889E-1
8.110713961E0,-1.065610409E0,-1.294427872E0,-8.589723706E-1
8.120290961E0,-1.261242867E0,-4.976100922E-1,-6.604192257E-1
8.130225961E0,-1.521300435E0,1.718530655E-1,-2.613947690E-1
8.140601961E0,-1.753005147E0,6.377801895E-1,1.557574421E-1
8.150344961E0,-1.858105659E0,9.694375992E-1,4.964439571E-1
8.160301961E0,-1.828512788E0,1.247160912E0,7.013223171E-1
8.170317961E0,-1.748448014E0,1.458467484E0,7.681857347E-1
8.180258961E0,-1.625546455E0,1.654328346E0,7.267975807E-1
8.190424961E0,-1.538494349E0,1.897359371E0,6.431989670E-1
8.200510961E0,-1.511547327E0,2.192910671E0,4.969918728E-1
8.210257961E0,-1.427085400E0,2.513320446E0,2.209882438E-1
8.220556961E0,-1.329656482E0,2.945260048E0,-3.051490784E-1
8.230345961E0,-1.132028103E0,3.341713905E0,-1.133396864E0
8.240455961E0,-9.069724083E-1,3.562752724E0,-2.252668381E0
8.250175961E0,-7.155897617E-1,3.534101009E0,-3.469648838E0
8.260303961E0,-7.539305687E-1,3.268685341E0,-4.362831116E0
8.270379961E0,-9.921535850E-1,3.005323410E0,-4.453810692E0
8.280379961E0,-1.128309250E0,2.877813816E0,-3.825953484E0
8.290353961E0,-1.082878590E0,2.809621811E0,-2.764457703E0
8.300306961E0,-9.927132726E-1,2.788719654E0,-1.765515089E0
8.310259961E0,-8.852390051E-1,2.720202446E0,-1.013442755E0
8.320289961E0,-7.196061611E-1,2.587384701E0,-5.649024248E-1
8.330284961E0,-5.373173952E-1,2.370140076E0,-3.432856798E-1
8.340607961E0,-4.750310183E-1,2.167945862E0,-2.292430997E-1
8.350270961E0,-3.748209476E-1,1.850368500E0,-1.068874002E-1
8.360221961E0,-2.032028437E-1,1.421390533E0,8.390545845E-4
8.370278961E0,-1.466349363E-1,1.049929619E0,1.400130391E-1
8.380317961E0,-7.992315292E-2,7.133836746E-1,3.722694218E-1
8.390280961E0,-3.323268890E-2,5.587739944E-1,5.077238083E-1
8.400374961E0,4.669201374E-2,6.321344376E-1,5.294690728E-1
8.410250961E0,2.475305796E-1,8.098812103E-1,4.337611794E-1
8.420526961E0,5.242857933E-1,9.997987747E-1,2.310901880E-1
8.430319961E0,9.295387268E-1,1.032366753E0,-8.532047272E-2
8.440276961E0,1.365625024E0,8.359556198E-1,-5.943232179E-1
8.450201961E0,1.761018753E0,5.289430618E-1,-1.495316386E0
8.460245961E0,2.090740204E0,3.568172455E-2,-3.067524433E0
8.470313961E0,2.238039732E0,-6.592769623E-1,-5.740030289E0
8.480435961E0,1.247626066E0,-1.059875488E0,-6.367460251E0
8.490266961E0,3.171110153E-2,-9.183502197E-1,-4.304249287E0
8.500254961E0,-1.028735995E0,-4.625663757E-1,-1.790232182E0
8.510299961E0,-1.340199471E0,-5.200395584E-1,-4.077738523E-1
8.520322961E0,-1.016419053E0,-1.143676758E0,2.148950100E-1
8.530303961E0,-9.374661446E-1,-2.005030632E0,4.344117641E-1
8.540432961E0,-1.339103460E0,-3.147627831E0,4.261367321E-1
8.550198961E0,-1.567286968E0,-4.918800354E0,3.506236076E-1
8.560418961E0,-1.936702609E0,-7.489955902E0,2.626801729E-1
8.570267961E0,-1.179932475E0,-1.105826378E1,-1.795784235E0
8.580264961E0,-7.087190151E-1,-9.655990601E0,-3.275208712E0
8.590292961E0,-8.443429470E-1,-7.346742630E0,-1.973729372E0
8.600269961E0,-9.200115204E-1,-5.384546280E0,-2.646808624E-1
8.610345961E0,-9.275476933E-1,-3.995208740E0,4.343409538E-1
8.620303961E0,-9.027529955E-1,-2.980241776E0,7.002897263E-1
8.630226961E0,-7.327358723E-1,-2.245777130E0,6.065709591E-1
8.640423961E0,-6.212414503E-1,-1.595650673E0,3.876686096E-3
8.650245961E0,-8.306051493E-1,-7.430028915E-1,-9.697028399E-1
8.660352961E0,-1.484754801E0,3.514051437E-1,-1.895627141E0
8.670281961E0,-2.193765402E0,1.325223923E0,-2.300016880E0
8.680406961E0,-2.531819820E0,1.924556732E0,-2.171887875E0
8.690293961E0,-2.398213387E0,2.169271946E0,-1.869469643E0
8.700201961E0,-2.187339544E0,2.317358494E0,-1.622850776E0
8.710316961E0,-2.008444786E0,2.465002060E0,-1.342876434E0
8.720354961E0,-1.864586115E0,2.720670700E0,-9.947645664E-1
8.730249961E0,-1.800802112E0,3.022070408E0,-3.362841606E-1
8.740262961E0,-1.864956498E0,3.357996941E0,1.776491404E-1
8.750297961E0,-1.779724121E0,3.672265530E0,5.289729834E-1
8.760626961E0,-1.615570784E0,4.058629513E0,7.131085396E-1
8.770266961E0,-1.493781328E0,4.361383915E0,9.594247341E-1
8.780246961E0,-1.363639116E0,4.657120228E0,1.061292648E0
8.790321961E0,-1.326583505E0,4.963748455E0,1.120898366E0
8.800253961E0,-1.169797421E0,5.135069370E0,1.096859217E0
8.810317961E0,-9.856896996E-1,5.097376823E0,1.094763756E0
8.820261961E0,-7.563399076E-1,4.885806561E0,1.088610530E0
8.830333961E0,-5.221748352E-1,4.533872604E0,9.879814982E-1
8.840824961E0,-1.780908108E-1,4.036635399E0,8.498222232E-1
8.850276961E0,1.169028282E-1,3.523693562E0,6.377178431E-1
8.860944961E0,5.144509077E-1,3.145545483E0,-4.794895649E-2
8.870286961E0,1.021651626E0,2.971935272E0,-1.631917715E0
8.880377961E0,1.490848660E0,2.681418419E0,-2.982957602E0
8.890271961E0,1.739358902E0,2.430252552E0,-3.819387674E0
8.900247961E0,1.730961084E0,2.212899208E0,-4.154075623E0
8.910375961E0,1.506789684E0,1.857346058E0,-3.972435474E0
8.920480961E0,1.364748955E0,1.335512161E0,-3.391295433E0
8.930351961E0,1.192648172E0,9.361057281E-1,-2.956772804E0
8.940646961E0,1.011333466E0,6.596632004E-1,-2.923465252E0
8.950260961E0,7.068481445E-1,3.880558014E-1,-3.462328434E0
8.960471961E0,4.079914093E-1,1.085376740E-2,-4.662684441E0
8.970852961E0,6.831414700E-1,-1.548547745E-1,-6.317353725E0
8.980322961E0,1.348956943E0,1.557912827E-1,-7.819339752E0
8.990303961E0,1.894490242E0,8.017578125E-1,-8.515604973E0
9.000405961E0,2.322095394E0,1.369404793E0,-8.254228592E0
9.010320961E0,2.574766636E0,1.044893265E0,-6.674449921E0
9.020305961E0,2.247357368E0,5.990791321E-2,-5.683808327E0
9.030282961E0,1.563803673E0,-7.696704865E-1,-3.972378254E0
9.040396961E0,1.519425154E0,-1.076384544E0,-9.327757359E-1
9.050333961E0,1.634144545E0,-7.870931625E-1,1.529853821E0
9.060569961E0,1.582439899E0,-8.346719742E-1,3.574887276E0
9.070263961E0,1.548546791E0,-1.524785995E0,4.674677849E0
9.080251961E0,1.327736378E0,-2.477158546E0,4.265473366E0
9.090486961E0,7.383289337E-1,-4.241608620E0,3.215013504E0
9.100302961E0,3.018481731E-1,-4.925558090E0,2.582743645E0
9.110253961E0,1.291086674E-1,-5.658261299E0,2.218633652E0
9.120428961E0,-2.504484653E-1,-6.540457726E0,1.785974503E0
9.130363961E0,-2.497165203E-1,-7.322252274E0,1.709042549E0
9.141236961E0,-9.168840647E-1,-8.025063515E0,1.780632019E0
9.150220961E0,-1.382090449E0,-8.104601860E0,1.911328197E0
9.160214961E0,-1.684098482E0,-8.131346703E0,1.979275465E0
9.170285961E0,-1.860996127E0,-7.953412056E0,2.436096907E0
9.180637961E0,-1.745741844E0,-7.624591827E0,2.906657219E0
9.190332961E0,-1.574138641E0,-7.105729103E0,3.191491604E0
9.200479961E0,-1.572018147E0,-6.258724213E0,3.292026520E0
9.210399961E0,-1.843618155E0,-4.942313194E0,3.053244114E0
9.220385961E0,-2.104968309E0,-3.396457672E0,2.632816076E0
9.230254961E0,-2.304690599E0,-1.929773331E0,2.172899008E0
9.240410961E0,-2.212466240E0,-7.591791153E-1,1.732429028E0
9.250226961E0,-2.234259605E0,2.695760727E-1,1.327012777E0
9.260680961E0,-2.362353325E0,1.168802261E0,9.707356691E-1
9.270244961E0,-2.384657383E0,1.902552128E0,5.731789470E-1
9.280407961E0,-2.462929487E0,2.570477009E0,2.475789934E-1
9.290363961E0,-2.560112000E0,3.215719700E0,-9.917102754E-3
9.300376961E0,-2.609464884E0,3.802673340E0,-1.397344470E-1
9.310390961E0,-2.741056919E0,4.411476135E0,-2.035660148E-1
9.320402961E0,-2.871829510E0,4.914035797E0,-1.124631613E-1
9.330360961E0,-3.025049686E0,5.414834976E0,-7.888361812E-2
9.341692961E0,-3.176128149E0,5.812360287E0,6.810531020E-3
9.350283961E0,-3.324593067E0,6.071101665E0,1.588215679E-1
9.360282961E0,-3.487579823E0,6.186603546E0,2.403757870E-1
9.370246961E0,-3.614940405E0,6.137623787E0,3.156512976E-1
9.380452961E0,-3.611986876E0,5.895354748E0,2.348581702E-1
9.390283961E0,-3.428369999E0,5.363956451E0,-1.767758280E-2
9.400407961E0,-3.080677032E0,4.688140392E0,-2.262247801E-1
9.410261961E0,-2.698737621E0,3.888759136E0,-4.656330645E-1
9.420317961E0,-2.395299196E0,3.034651279E0,-7.090327740E-1
9.430351961E0,-2.105089188E0,2.104559422E0,-1.031133056E0
9.440467961E0,-1.771112680E0,1.006042480E0,-1.193129539E0
9.450276961E0,-1.458240271E0,-1.249074936E-1,-1.378576636E0
9.461030961E0,-8.894485235E-1,-1.303360939E0,-2.383248091E0
9.470475961E0,-2.558987141E-1,-2.463336945E0,-3.763629436E0
9.480243961E0,4.269144535E-1,-3.893886566E0,-4.246685982E0
9.490293961E0,1.039593816E0,-5.067360878E0,-4.888571739E0
9.500360961E0,1.275426865E0,-5.605127335E0,-5.972298145E0
9.511117961E0,1.591661692E0,-5.615440369E0,-7.019898415E0
9.520398961E0,1.818549633E0,-5.151744843E0,-7.757556915E0
9.530295961E0,1.988421202E0,-4.803372383E0,-7.911287785E0
9.540932961E0,2.271476507E0,-4.852826118E0,-7.458252907E0
9.550376961E0,2.202997208E0,-5.033625603E0,-6.260130882E0
9.560293961E0,1.660913229E0,-5.275213242E0,-4.947891235E0
9.570362961E0,1.086832285E0,-5.443089485E0,-3.609319210E0
9.580395961E0,5.414950848E-1,-5.298115730E0,-2.076340199E0
9.590476961E0,7.894563675E-2,-4.555125237E0,-8.785861731E-1
9.600992961E0,-7.177928686E-1,-2.447312355E0,7.439992428E-1
9.610437961E0,-6.426005363E-1,-2.430584908E0,1.000386000E0
9.620768961E0,-1.491939306E0,-6.919994354E-1,2.424586296E0
9.630350961E0,-1.413992405E0,-6.917686462E-1,2.563236475E0
9.640289961E0,-3.316278458E0,5.720243454E-1,2.775257587E0
9.650248961E0,-3.422762394E0,5.830898285E-1,2.671346664E0
9.660267961E0,-3.143001556E0,4.309358597E-1,2.437264442E0
9.670245961E0,-2.932441235E0,4.168157578E-1,2.098183155E0
9.680215961E0,-2.361612558E0,1.762714386E-1,1.376780748E0
9.690278961E0,-1.599327683E0,-2.322835922E-1,6.215618849E-1
9.700339961E0,-1.151645780E0,-8.939437866E-1,1.063656807E-2
9.710366961E0,-1.022011638E0,-1.456286430E0,-4.240517616E-1
9.720482961E0,-1.026240110E0,-1.796449661E0,-6.690325737E-1
9.730268961E0,-1.496701717E0,-1.376446724E0,-5.429167747E-1
9.740290961E0,-1.630104423E0,-9.479389191E-1,-6.340074539E-1
9.750203961E0,-1.479140520E0,-7.172861099E-1,-7.689237595E-1
9.760407961E0,-1.573912859E0,-2.040834427E-1,-2.816932201E-1
9.770457961E0,-1.747221947E0,4.633760452E-1,5.311620235E-1
9.780240961E0,-1.830457449E0,1.067098618E0,1.284543991E0
9.790467961E0,-1.814588070E0,1.680631161E0,2.075134039E0
9.800288961E0,-1.641252756E0,2.243101597E0,2.249108791E0
9.810363961E0,-1.544485092E0,2.754759789E0,2.358262539E0
9.820434961E0,-1.450971842E0,3.145933151E0,2.576101303E0
9.830230961E0,-1.201422811E0,3.410881996E0,2.506046057E0
9.840215961E0,-9.041568637E-1,3.486811638E0,2.058914185E0
9.850266961E0,-6.117688417E-1,3.475557327E0,1.219521403E0
9.861992961E0,-5.185732245E-1,3.314133644E0,4.913586378E-1
9.870410961E0,-6.955442429E-1,3.129245281E0,5.210087299E-1
9.880472961E0,-8.874626160E-1,2.839443684E0,9.752206802E-1
9.890316961E0,-8.879357576E-1,2.416605473E0,1.307521462E0
9.900471961E0,-8.390782475E-1,1.966600895E0,1.617324829E0
9.910288961E0,-6.566133499E-1,1.564891815E0,1.806978226E0
9.920385961E0,-3.944262862E-1,1.250898361E0,1.997933269E0
9.930356961E0,-6.620323658E-2,1.121142387E0,2.131860495E0
9.940615961E0,2.751432061E-1,1.216360092E0,2.150875807E0
9.950334961E0,6.289633512E-1,1.458750725E0,1.788992405E0
9.960360961E0,1.064291954E0,1.880058289E0,6.190748215E-1
9.970295961E0,1.443891287E0,2.254960537E0,-3.494964838E-1
9.980724961E0,1.637334347E0,2.389011860E0,-3.622097969E-1
9.993498961E0,1.843178749E0,2.419316292E0,-7.162984610E-1
1.001027996E1,2.315292120E0,2.336385727E0,-1.252539396E0
1.002045196E1,2.772588253E0,2.555500507E0,-3.078588009E0
1.003037296E1,3.329669237E0,2.618983746E0,-4.456442356E0
1.004061996E1,3.478039980E0,2.149207115E0,-3.343605042E0
1.005046796E1,3.217654705E0,1.449358940E0,-1.011144400E0
1.006046996E1,2.897688866E0,1.161421776E0,3.402302265E-1
1.007032196E1,2.591258764E0,1.348133087E0,5.531076789E-1
1.008045196E1,2.396511078E0,1.654682159E0,1.410822272E-1
1.009027796E1,2.007514715E0,2.171728134E0,-6.657477021E-1
1.010028396E1,1.662994027E0,2.769680023E0,-2.125978708E0
1.011060196E1,9.988434315E-1,3.448013783E0,-3.924546719E0
1.012029396E1,4.280202389E-1,3.856790066E0,-5.225934505E0
1.013042696E1,1.471656561E-1,3.577264786E0,-5.728610992E0
1.014024296E1,-1.477416754E-1,3.186538219E0,-6.114659309E0
1.015032396E1,-4.640247226E-1,2.652903557E0,-6.246048927E0
1.016038096E1,-3.488941193E-1,1.670744896E0,-6.211716652E0
1.017027896E1,8.548302650E-1,8.261890411E-1,-5.108750820E0
1.018022696E1,1.505667448E0,1.599004745E0,-2.031505704E-1
1.019036396E1,1.643214583E0,2.054273129E0,2.625203609E0
1.020041296E1,1.682490826E0,1.649046898E0,2.791962385E0
1.021026296E1,1.228351116E0,9.337654114E-1,2.527413845E0
1.022037296E1,1.016878724E0,-3.663272858E-1,2.515619278E0
1.023038396E1,7.174345255E-1,-2.274997711E0,2.351165295E0
1.024025896E1,8.907530308E-1,-4.388216019E0,2.068543196E0
1.025031396E1,4.446493387E-1,-6.556450844E0,2.277652979E0
1.026021596E1,4.321923256E-1,-8.130518913E0,3.028508186E0
1.027039996E1,-3.398323059E-2,-9.516297340E0,4.049304962E0
1.028041396E1,-7.805038691E-1,-1.040549278E1,4.723321915E0
1.029028596E1,-1.229697943E0,-1.052062607E1,4.683188915E0
1.030024196E1,-1.738902688E0,-9.163403511E0,3.937752008E0
1.031030596E1,-2.316501617E0,-7.176146507E0,2.355697155E0
1.032314596E1,-2.814271927E0,-5.372684479E0,3.781190217E-1
1.034041696E1,-1.709890485E0,-3.029637337E0,-1.077442765E0
1.035040696E1,-1.157775164E0,-2.130592346E0,-1.062901735E0
1.036052196E1,-1.271808028E0,-1.014541626E0,-6.422770619E-1
1.037026396E1,-1.647013783E0,-3.496837616E-2,4.701775312E-2
1.038026896E1,-1.939889312E0,6.716318130E-1,6.114996076E-1
1.039079696E1,-1.991719961E0,1.060596466E0,1.071930647E0
1.040048796E1,-1.841398716E0,1.279932022E0,1.306014538E0
1.041024696E1,-1.567218900E0,1.460284233E0,1.335181236E0
1.042032896E1,-1.253705978E0,1.664422989E0,1.150005341E0
1.043025196E1,-1.027215362E0,1.943409443E0,9.753314257E-1
1.044055896E1,-8.417382240E-1,2.290564060E0,7.440481186E-1
1.045024896E1,-7.137036324E-1,2.604232311E0,5.349059105E-1
1.046032796E1,-6.035943031E-1,2.909758091E0,3.219943941E-1
1.047060396E1,-4.980769157E-1,3.145439148E0,9.869857132E-2
1.048042596E1,-3.961222768E-1,3.310138702E0,-1.187844872E-1
1.049040596E1,-2.534349561E-1,3.383549213E0,-4.129983187E-1
1.050030596E1,-1.088230610E-1,3.371575356E0,-7.470853329E-1
1.051052996E1,3.735902309E-1,3.167563915E0,-1.607666731E0
1.052028496E1,9.060111046E-1,3.011912346E0,-3.522911549E0
1.053024096E1,7.517939806E-1,2.943551064E0,-4.875878334E0
1.054025596E1,1.300833225E-1,3.069996357E0,-4.968288898E0
1.055040596E1,5.061113834E-2,3.112389088E0,-5.577070713E0
1.056032696E1,4.861041307E-1,3.123519421E0,-6.174095631E0
1.057027996E1,7.522246838E-1,2.963599205E0,-5.716754913E0
1.058043096E1,8.075388670E-1,2.893149853E0,-4.015237808E0
1.059026896E1,5.436620712E-1,2.807083607E0,-2.439332008E0
1.060032296E1,3.397305012E-1,2.642929077E0,-1.591362000E0
1.061029296E1,9.120941162E-3,2.605519295E0,-8.479299545E-1
1.062037396E1,-2.689352632E-1,2.620147705E0,-3.820005655E-1
1.063027296E1,-2.760428190E-1,2.564512730E0,-2.894365788E-1
1.064045796E1,-2.237641811E-2,2.390996456E0,-6.541293859E-1
1.065024496E1,3.592550755E-1,2.067502975E0,-1.632005095E0
1.066023996E1,3.581187725E-1,1.570448875E0,-3.093657017E0
1.067091396E1,-2.581038475E-1,1.086194992E0,-4.070093155E0
1.068056496E1,-1.247292519E0,8.196687698E-1,-4.131771088E0
1.069023896E1,-2.062249422E0,6.035003662E-1,-3.300843477E0
1.070095996E1,-2.640038013E0,4.781150818E-2,-1.838137150E0
1.071070196E1,-2.506367683E0,-8.759145737E-1,-1.104736328E0
1.072068496E1,-2.409919739E0,-1.843276978E0,1.229817867E-1
1.073032596E1,-1.833619475E0,-3.735834122E0,1.033493042E0
1.074157596E1,-1.003683448E0,-6.845456123E0,1.113805294E0
1.075026796E1,-1.312597632E0,-1.064056873E1,3.738017082E-1
1.076027496E1,-1.868684649E0,-1.392499924E1,2.895599842E0
1.077319496E1,-5.728565454E-1,-1.381843948E1,-3.463582039E0
1.079020796E1,-2.038753629E-1,-6.907158852E0,-9.431781769E-1
1.080034996E1,-7.628487349E-1,-3.980969429E0,1.680370569E0
1.081036496E1,-8.377657533E-1,-2.372184753E0,2.389264584E0
1.082031696E1,-6.242030263E-1,-1.459507942E0,1.619298220E0
1.083028996E1,-1.017158151E0,-7.151784897E-1,2.353513241E-1
1.084055496E1,-1.594910145E0,-5.375051498E-1,-4.855232239E-1
1.085030596E1,-1.727607608E0,-6.392450333E-1,-4.212408066E-1
1.086025296E1,-1.402368903E0,-5.198545456E-1,-2.352185249E-1
1.087026296E1,-1.193380952E0,-8.003234863E-3,2.265834808E-2
1.088073296E1,-9.468193650E-1,6.108236313E-1,3.326158524E-1
1.089030796E1,-7.168790102E-1,1.195894241E0,7.702677250E-1
1.090064896E1,-5.209472179E-1,1.739187241E0,1.153164029E0
1.091026496E1,-3.368172944E-1,2.320334435E0,1.188355923E0
1.092027096E1,-1.218857169E-1,2.875614166E0,1.088166356E0
1.093024196E1,1.001989841E-2,3.427361012E0,7.809534073E-1
1.094041496E1,1.213838458E-1,3.903287411E0,4.406056404E-1
1.095025296E1,1.586111784E-1,4.311927795E0,5.916166306E-2
1.096043496E1,1.670964360E-1,4.552683353E0,-1.160440445E-1
1.097030496E1,1.370961070E-1,4.697054863E0,-2.675561905E-1
1.098027696E1,1.803355813E-1,4.818569183E0,-4.504542351E-1
1.099243596E1,4.298252463E-1,4.966552734E0,-1.001600504E0
1.101033396E1,1.373605967E0,4.904228687E0,-3.223009348E0
1.102026396E1,1.812150478E0,4.580596924E0,-4.013041496E0
1.103043396E1,2.084452152E0,4.281506062E0,-4.312692642E0
1.104046296E1,2.100878716E0,4.015039444E0,-4.332399368E0
1.105024496E1,1.927625656E0,3.640899658E0,-3.710387945E0
1.106034096E1,1.668063998E0,3.322287560E0,-2.912784100E0
1.107070396E1,1.389373541E0,3.030201912E0,-2.202283382E0
1.108032196E1,1.025951147E0,2.678363800E0,-1.653374553E0
1.109044996E1,5.941591859E-1,2.314669609E0,-1.371318102E0
1.110054796E1,2.921444178E-2,1.833168030E0,-1.498618126E0
1.111053296E1,-4.578478336E-1,1.438055992E0,-2.340548515E0
1.112030096E1,-1.055690646E0,1.193261147E0,-4.007791996E0
1.113029096E1,-1.623412848E0,8.394546509E-1,-6.115557194E0
1.114025496E1,-1.992742419E0,5.243587494E-1,-8.037419319E0
1.115024296E1,-1.533610940E0,4.673938751E-1,-8.097242355E0
1.116030896E1,-2.670876980E-1,7.258081436E-1,-5.314575195E0
1.117042496E1,3.953994513E-1,1.323794365E0,-1.889632940E0
1.118026396E1,4.971703291E-1,1.615799904E0,6.587637663E-1
1.119024896E1,4.658721685E-1,1.293995857E0,2.010394573E0
1.120023896E1,3.855100870E-1,5.472621918E-1,2.164604902E0
1.121030896E1,2.013016939E-1,-3.243732452E-1,2.135689259E0
1.122031896E1,2.659957409E-1,-1.369973183E0,2.117965937E0
1.123048696E1,7.259563208E-1,-2.465713501E0,2.371981621E0
1.124042096E1,7.314260006E-1,-3.611970901E0,2.716518641E0
1.125021496E1,1.812879920E0,-6.803793907E0,3.257673264E0
1.126051496E1,1.994998574E0,-8.527972221E0,3.932753563E0
1.127314796E1,1.882191539E0,-9.843262672E0,4.575562000E0
1.129070296E1,4.706233740E-1,-9.213314056E0,4.917369366E0
1.130026796E1,-5.200704932E-1,-7.260005951E0,4.009664536E0
1.131023596E1,-8.112603426E-1,-5.094360352E0,2.677829266E0
1.132025696E1,-6.192305684E-1,-3.378108025E0,1.341169715E0
1.133024496E1,-5.438958406E-1,-2.134325981E0,5.337199569E-1
1.134034596E1,-5.169976950E-1,-1.328776360E0,1.534563005E-1
1.135034896E1,-5.334685445E-1,-7.699279785E-1,4.966801405E-2
1.136038596E1,-6.963783503E-1,-2.768802643E-1,3.107499480E-1
1.137023996E1,-9.108684063E-1,2.405185699E-1,4.921814799E-1
1.138041696E1,-9.225432873E-1,7.530946732E-1,6.386790276E-1
1.139034396E1,-7.983432412E-1,1.289120674E0,7.407236695E-1
1.140024196E1,-6.688961983E-1,1.839362144E0,7.290759087E-1
1.141041196E1,-5.384788513E-1,2.430261612E0,6.488333344E-1
1.142026296E1,-4.190045595E-1,3.024687767E0,5.088935494E-1
1.143021096E1,-2.735822797E-1,3.577073097E0,4.264525473E-1
1.144021596E1,-2.164280415E-1,4.189096928E0,1.236398220E-1
1.145028296E1,-1.414551735E-1,4.773275852E0,-2.723819613E-1
1.146071596E1,-7.072150707E-3,5.355669975E0,-1.001027107E0
1.147026496E1,1.754094958E-1,5.601880550E0,-2.989702702E0
1.148024196E1,-5.594605207E-2,4.728549957E0,-5.425343513E0
1.149090596E1,1.291416287E-1,3.714665890E0,-7.384936333E0
1.150033296E1,4.571028948E-1,3.282883644E0,-7.618139744E0
1.151027696E1,6.440294385E-1,3.308885574E0,-6.236866474E0
1.152056596E1,5.539008379E-1,3.598410130E0,-3.961907864E0
1.153034096E1,4.846165180E-1,3.702560425E0,-2.096499920E0
1.154028496E1,4.067138433E-1,3.487243652E0,-9.504641294E-1
1.155023396E1,2.435582876E-1,3.101016045E0,-2.478811741E-1
1.156027296E1,4.945665598E-2,2.651812077E0,1.409031153E-1
1.157342296E1,-1.674050093E-1,2.165404320E0,4.996061325E-1
1.159127196E1,-1.777238846E-1,1.254717827E0,1.071385384E0
1.160025096E1,6.517422199E-2,9.054441452E-1,1.200821996E0
1.161023096E1,2.665864229E-1,7.396306992E-1,1.297962427E0
1.162050796E1,4.179614782E-1,6.982040405E-1,1.456084967E0
1.163024196E1,5.794427395E-1,4.194545746E-1,1.620173693E0
1.164036596E1,7.093802094E-1,-2.855777740E-2,1.744333744E0
1.165039496E1,9.484677911E-1,-5.140399933E-1,1.580551982E0
1.166029296E1,1.899895906E0,-1.138090134E0,-8.683568239E-1
1.167026096E1,4.116864681E0,-2.535893440E0,-8.945548058E0
1.168023096E1,3.446181297E0,-3.040615082E0,-9.669321060E0
1.169025996E1,-3.100889921E-2,-1.884153366E0,-2.207436323E0
1.170022596E1,-1.213387370E0,-1.504826546E0,1.443984151E0
1.171042996E1,-1.056874037E0,-1.675499916E0,3.107431173E0
1.172031896E1,1.482496262E-1,-2.419253349E0,3.735629320E0
1.173023396E1,1.627671361E0,-3.592179298E0,2.398361683E0
1.174069896E1,2.223021746E0,-3.660418510E0,-9.048836231E-1
1.175023596E1,1.630937815E0,-3.167234421E0,-7.613971233E-1
1.176025696E1,1.097876310E0,-3.485256195E0,1.125411034E0
1.177319696E1,1.177766800E0,-4.886025429E0,1.855623245E0
1.179030496E1,-3.092813492E-1,-8.601184845E0,-8.243091106E-1
1.180035396E1,-4.945981503E-2,-6.688868523E0,-1.067936659E0
1.181023196E1,-5.216612816E-1,-3.623735428E0,-3.027529716E-1
1.182040396E1,-6.802232862E-1,-1.635079384E0,7.025012970E-1
1.183026896E1,-6.010600924E-1,-6.144495010E-1,1.497315407E0
1.184026496E1,-2.970529199E-1,-2.402973175E-2,1.492928982E0
1.185025896E1,6.559824944E-2,3.483476639E-1,8.856139183E-1
1.186044096E1,1.909927726E-1,6.170434952E-1,2.933368683E-1
1.187032696E1,-9.249210358E-3,8.653430939E-1,-1.854710579E-1
1.188113496E1,-5.109101534E-2,8.320360184E-1,-5.589416027E-1
1.189030696E1,1.117535830E-1,7.227134705E-1,-7.863817215E-1
1.190035496E1,1.387722492E-1,7.013025284E-1,-7.100539207E-1
1.191029296E1,2.500982285E-1,7.633752823E-1,-4.594295025E-1
1.192045696E1,2.242111564E-1,9.888544083E-1,-2.753717899E-1
1.193026896E1,2.316083312E-1,1.455497742E0,-1.283562183E-1
1.194028196E1,3.016086221E-1,2.036078453E0,-7.327342033E-2
1.195032596E1,3.566650152E-1,2.722856045E0,-1.854794025E-1
1.196025196E1,4.056071043E-1,3.390454292E0,-4.442110062E-1
1.197025096E1,5.157160163E-1,4.036707401E0,-4.474110603E-1
1.198031796E1,6.313751340E-1,4.605035782E0,-1.138403416E-1
1.199025996E1,6.592985988E-1,5.144269943E0,5.203273296E-1
1.200047696E1,7.380904555E-1,5.493638515E0,9.400204420E-1
1.201039096E1,9.223834276E-1,5.666707993E0,9.387387037E-1
1.202027896E1,1.158130407E0,5.740172386E0,7.333627939E-1
1.203034796E1,1.466066122E0,5.516059399E0,5.533761978E-1
1.204032096E1,1.784348726E0,5.099860191E0,3.366004229E-1
1.205021296E1,1.991041541E0,4.554393768E0,-3.421497345E-2
1.206041796E1,2.178776979E0,3.865626335E0,-4.183744192E-1
1.207031596E1,2.397288322E0,3.025696754E0,-4.387567043E-1
1.208024296E1,2.548722982E0,2.196155071E0,-7.262802124E-2
1.209030196E1,2.630125999E0,1.457544327E0,4.588847160E-1
1.210035396E1,2.611926556E0,1.049537659E0,4.046556950E-1
1.211028796E1,2.375057697E0,9.981594086E-1,-3.101654053E-1
1.212049696E1,1.945984125E0,9.652709961E-1,-1.828745246E0
1.213024896E1,1.298293829E0,6.668500900E-1,-4.407064915E0
1.214082696E1,-6.157344580E-1,1.595106125E-1,-1.314844894E1
1.215029296E1,-2.314286232E0,-8.752584457E-1,-1.914007759E1
1.216060996E1,9.575464725E-1,-8.771352768E-1,-2.439199924E0
1.217027396E1,2.163470745E0,3.375663757E-1,4.842572212E0
1.218079296E1,2.094264507E0,9.124784470E-1,3.672420263E0
1.219028396E1,1.571539402E0,1.318555832E0,2.773569107E0
1.220064396E1,1.473979592E0,1.272428513E0,2.794929028E0
1.221027496E1,1.517208457E0,8.804712296E-1,2.386563778E0
1.222187096E1,1.613641620E0,1.418476105E-1,1.886796355E0
1.223030696E1,1.929850459E0,-9.827566147E-1,1.700545549E0
1.224135796E1,2.414053917E0,-2.355002403E0,1.571766019E0
1.225024396E1,2.649502993E0,-3.668526649E0,1.840389967E0
1.226058596E1,2.829999924E0,-4.925741196E0,2.311492443E0
1.227054996E1,2.195200205E0,-6.655153275E0,2.802147627E0
1.228081696E1,1.826227307E0,-8.111365318E0,3.541269779E0
1.229033496E1,7.201366425E-1,-9.410637856E0,4.311428070E0
1.230077396E1,-1.359117985E0,-8.478615761E0,3.844569683E0
1.231031296E1,-1.377349615E0,-8.472592354E0,2.311690569E0
1.232119896E1,-1.278473616E0,-5.087324142E0,8.397014141E-1
1.233029296E1,-9.540876150E-1,-3.569829941E0,-2.009445727E-1
1.234027896E1,-6.550091505E-1,-2.207035065E0,-7.554010153E-1
1.235026396E1,-4.430649877E-1,-1.047670364E0,-8.699826002E-1
1.236039996E1,-6.244300604E-1,5.846691132E-2,-5.973339677E-1
1.237080596E1,-9.088591337E-1,1.045975685E0,-1.975041032E-1
1.238027496E1,-1.025938511E0,1.816878796E0,2.115606964E-1
1.239030996E1,-1.208672047E0,2.462615013E0,6.006348133E-1
1.240027596E1,-1.428621531E0,2.968498230E0,8.575661182E-1
1.241060596E1,-1.512831450E0,3.245028496E0,1.014209747E0
1.242027696E1,-1.531196356E0,3.360490799E0,1.099904776E0
1.243033896E1,-1.493050933E0,3.322768688E0,1.103924036E0
1.244049396E1,-1.420402527E0,3.233632088E0,9.653857946E-1
1.245030296E1,-1.095512629E0,3.031958580E0,5.823884010E-1
1.246039096E1,-6.963713169E-1,2.861097336E0,7.076925039E-2
1.247039296E1,-4.124698639E-1,2.759780407E0,-5.584095120E-1
1.248027196E1,-2.591381073E-1,2.690845966E0,-1.273980737E0
1.249026896E1,-2.483987808E-2,2.488846302E0,-2.013228416E0
1.250024596E1,2.576099634E-1,2.235575199E0,-2.860457420E0
1.251025296E1,5.421619415E-1,2.236794472E0,-4.352015972E0
1.252056996E1,8.882572651E-1,2.467917442E0,-5.582286835E0
1.253027796E1,1.220359087E0,2.814414501E0,-5.931679726E0
1.254043996E1,1.375949383E0,3.027532101E0,-5.648296833E0
1.255026596E1,1.092258096E0,3.445476055E0,-4.587944031E0
1.256154996E1,5.477078557E-1,3.815546989E0,-3.117110729E0
1.257032696E1,1.661255360E-1,3.814234257E0,-1.778786063E0
1.258107096E1,-1.941211820E-1,3.749624252E0,-8.737070560E-1
1.259025796E1,-4.109758735E-1,3.324870586E0,-9.254276752E-2
1.260094796E1,-5.102776885E-1,2.830236912E0,5.769447088E-1
1.261031196E1,-5.471160412E-1,2.378280640E0,1.077619314E0
1.262111496E1,-4.731114507E-1,1.948274136E0,1.391721010E0
1.263057996E1,-3.799819350E-1,1.535391808E0,1.558813572E0
1.264130096E1,-3.053615093E-1,1.117520332E0,1.541022420E0
1.265038296E1,-1.518529654E-2,5.121984482E-1,1.111294746E0
1.266076596E1,1.064395070E0,-4.124965668E-1,-1.132367492E0
1.267024896E1,1.746820092E0,-1.455671310E0,-4.459404945E0
1.268047396E1,5.569166541E-1,-1.884458542E0,-4.777123451E0
1.269040696E1,-8.644710779E-1,-2.186658859E0,-3.027226925E0
1.270063696E1,-1.621140480E0,-2.690767288E0,-1.815556526E0
1.271031496E1,-1.215116382E0,-3.464632034E0,-8.349993229E-1
1.272088096E1,-7.143259645E-1,-4.272569656E0,1.670088768E-1
1.273022196E1,-1.944707632E-1,-4.801151276E0,1.386126280E0
1.274028796E1,6.164138317E-1,-5.765311241E0,3.101225853E0
1.275023796E1,1.514338374E0,-6.865665436E0,2.972864151E0
1.276035296E1,2.068591118E0,-7.299163818E0,-2.918381691E-1
1.277039896E1,2.116396904E0,-7.554646492E0,-1.666261673E0
1.278036296E1,1.405956268E0,-7.775897026E0,-2.166355133E0
1.279027196E1,3.292529583E-1,-7.432082176E0,-2.560447216E0
1.280051396E1,-1.606592536E-1,-5.928639412E0,-1.735113621E0
1.281027596E1,-4.446033835E-1,-4.219066620E0,-3.014249802E-1
1.282027796E1,-6.288539171E-1,-2.936863899E0,1.068639040E0
1.283022196E1,-7.049198151E-1,-2.049359322E0,2.128973007E0
1.284023796E1,-5.567958355E-1,-1.433881760E0,2.291584253E0
1.285036696E1,-1.205690622E0,-3.014240265E-1,7.739017010E-1
1.286032096E1,-1.370532513E0,1.317310333E-2,1.200900078E-1
1.287023496E1,-1.223664880E0,2.611274719E-1,-1.315307617E-1
1.288035096E1,-1.184281468E0,7.079753876E-1,-1.219506264E-1
1.289029496E1,-9.673929214E-1,1.176236153E0,2.327613831E-1
1.290023696E1,-6.647916436E-1,1.654560566E0,5.287806988E-1
1.291025796E1,-3.494075835E-1,2.053240299E0,8.362252712E-1
1.292030796E1,-5.573505163E-2,2.382048130E0,1.099720240E0
1.293074296E1,1.673978567E-1,2.723898888E0,1.247642279E0
1.294029796E1,3.600953221E-1,3.102802753E0,1.068071127E0
1.295025696E1,5.163694620E-1,3.419652462E0,8.219902515E-1
1.296023296E1,6.589370966E-1,3.705767632E0,5.368568897E-1
1.297029196E1,7.254855037E-1,3.911924839E0,4.040138721E-1
1.298026096E1,7.476428151E-1,4.033771992E0,4.192676544E-1
1.299022496E1,7.577078342E-1,4.164076328E0,3.610880375E-1
1.300024296E1,9.541803598E-1,4.254426479E0,1.797122955E-1
1.301037596E1,1.333848238E0,4.309115410E0,-2.942092419E-1
1.302025596E1,1.697472811E0,4.059904575E0,-5.939455032E-1
1.303076796E1,1.958354473E0,3.736252785E0,-6.970505714E-1
1.304030096E1,1.970795274E0,3.380780697E0,-4.476525784E-1
1.305040096E1,1.874162912E0,3.035394192E0,-8.299207687E-2
1.306051596E1,1.757841229E0,2.682420254E0,1.376092434E-1
1.307031396E1,1.666152716E0,2.339720726E0,2.980496883E-1
1.308045596E1,1.530313730E0,2.010195255E0,3.662427664E-1
1.309028296E1,1.463696480E0,1.666838646E0,2.024306059E-1
1.310052596E1,1.403579235E0,1.321887016E0,-5.931377411E-2
1.311028096E1,1.363890409E0,9.644851685E-1,-4.566558599E-1
1.312053796E1,1.198735237E0,7.869300842E-1,-1.119821072E0
1.313026896E1,7.508456707E-1,8.538541794E-1,-2.191025734E0
1.314022096E1,2.895970345E-1,1.014410019E0,-3.438563824E0
1.315024996E1,-2.045943737E-1,1.246629715E0,-4.579296589E0
1.316024996E1,-2.271747589E-1,1.353864670E0,-5.415378094E0
1.317043296E1,-6.962794065E-2,1.449082375E0,-5.474807262E0
1.318039696E1,6.619447470E-2,1.602353096E0,-4.751320839E0
1.319035796E1,4.414493442E-1,1.659581184E0,-3.624387026E0
1.320037296E1,7.031909227E-1,1.516586304E0,-2.343275785E0
1.321043096E1,9.861750007E-1,1.271964073E0,-1.639638186E0
1.322030496E1,1.105880022E0,9.283332825E-1,-2.023323059E0
1.323026996E1,1.028257847E0,5.505352020E-1,-3.021289587E0
1.324046196E1,1.324416876E0,8.676433563E-2,-3.393094540E0
1.325073396E1,2.070513010E0,-1.265430450E-2,-1.815228105E0
1.326030596E1,2.586623192E0,2.296171188E-1,5.961351395E-1
1.327032696E1,2.710898876E0,3.272447586E-1,2.642043114E0
1.328029596E1,2.220653057E0,2.740821838E-1,2.930014849E0
1.329057296E1,1.579534888E0,6.679439545E-2,2.853019714E0
1.330029496E1,1.079884768E0,-3.281469345E-1,2.822554588E0
1.331026496E1,6.188319921E-1,-1.211581230E0,2.634713173E0
1.332027296E1,3.198668957E-1,-2.510846138E0,2.647177458E0
1.333026696E1,1.513533592E-1,-4.236222267E0,2.854815006E0
1.334035096E1,1.542912722E-1,-6.194294930E0,3.226095676E0
1.335035096E1,-7.136237621E-2,-7.985986710E0,3.586861134E0
1.336076396E1,-8.592651486E-1,-9.356069565E0,3.223083973E0
1.337032196E1,-1.484627485E0,-9.326167107E0,3.170692921E0
1.338030796E1,-1.751929283E0,-7.890573502E0,2.060471296E0
1.339028996E1,-1.615203619E0,-4.038261414E0,-2.115238905E-1
1.340053496E1,-1.315041423E0,-2.671501160E0,-7.705255151E-1
1.341026796E1,-1.228101015E0,-1.550907135E0,-8.914017677E-1
1.342050796E1,-1.293851852E0,-5.203437805E-1,-4.029302597E-1
1.343031996E1,-1.360528946E0,3.218212128E-1,2.364560962E-1
1.344043796E1,-1.325283289E0,9.051494598E-1,7.977870703E-1
1.345027396E1,-1.071545959E0,1.281358719E0,1.213994145E0
1.346045596E1,-8.092398643E-1,1.535496712E0,1.532442212E0
1.347031896E1,-6.693570614E-1,1.846361160E0,1.724955678E0
1.348028896E1,-5.693103075E-1,2.282642841E0,1.755495310E0
1.349023196E1,-5.036503673E-1,2.746652126E0,1.662868977E0
1.350039596E1,-4.099256694E-1,3.209694862E0,1.546054602E0
1.351030096E1,-2.387709022E-1,3.631618977E0,1.434888482E0
1.352029496E1,-5.220848322E-2,3.997042656E0,1.276630282E0
1.353028496E1,1.213835478E-1,4.235507011E0,1.184560537E0
1.354047896E1,2.943388224E-1,4.324357986E0,1.007447362E0
1.355038096E1,5.410282612E-1,4.085101128E0,7.160872221E-1
1.356058196E1,1.509719372E0,3.275542259E0,-6.581891775E-1
1.357090796E1,2.552183390E0,2.231888294E0,-3.524810791E0
1.358100596E1,1.701510668E0,2.058667660E0,-4.074972153E0
1.359033596E1,1.102375507E0,1.897775173E0,-3.891450882E0
1.360025496E1,1.666251898E0,1.235808372E0,-3.964524746E0
1.361026896E1,2.675078869E0,7.322788239E-1,-4.134599209E0
1.362027996E1,3.124947071E0,5.737199783E-1,-3.962752819E0
1.363037296E1,2.605905533E0,7.660417557E-1,-2.762963057E0
1.364039396E1,1.511073589E0,1.146214485E0,-8.282475471E-1
1.365022896E1,6.140993237E-1,1.432275772E0,7.924830914E-1
1.366041696E1,1.484684944E-1,1.442955017E0,1.612866640E0
1.367025496E1,1.025810242E-1,1.277045250E0,2.011175156E0
1.368034496E1,1.382403970E-1,1.192316055E0,2.289504528E0
1.369021896E1,2.027867436E-1,1.138639450E0,2.274100065E0
1.370038396E1,2.408815026E-1,1.146479607E0,2.122346401E0
1.371058196E1,3.642717600E-1,1.149661064E0,1.947944880E0
1.372027996E1,8.821313977E-1,1.001504898E0,1.344624162E0
1.373029596E1,1.576032639E0,7.742338181E-1,-2.780151367E-1
1.374028596E1,2.201672554E0,4.184637070E-1,-2.814636707E0
1.375020296E1,1.987747550E0,2.249441147E-1,-4.225498199E0
1.376024996E1,1.044759631E0,2.549352646E-1,-2.659170151E0
1.377027496E1,3.479647636E-2,3.336906433E-1,8.979320526E-3
1.378033796E1,-3.440344930E-1,9.269142151E-2,1.546664834E0
1.379038496E1,-9.533774853E-2,-5.029287338E-1,1.606931925E0
1.380034996E1,2.949992418E-1,-1.470249176E0,1.355797291E0
1.381037896E1,5.223015547E-1,-2.305809975E0,7.176215649E-1
1.382042296E1,5.475012064E-1,-2.879340172E0,-2.031283379E-1
1.383027796E1,2.736620903E-1,-3.337172508E0,8.840084076E-2
1.384110696E1,1.694009304E-1,-4.154715538E0,1.669724226E0
1.385030996E1,5.014704466E-1,-5.617954254E0,2.512220383E0
1.386030296E1,8.197039366E-1,-7.455380440E0,2.404000044E0
1.387028396E1,8.598532677E-1,-9.120070457E0,1.791293025E0
1.388029696E1,9.410784245E-1,-1.010916328E1,1.129866838E0
1.389027896E1,9.695342779E-1,-9.376550674E0,8.271119595E-1
1.390023196E1,7.198271751E-1,-7.152826309E0,1.283730984E0
1.391047396E1,4.786083698E-1,-4.978584290E0,1.794625401E0
1.392025796E1,2.591958046E-1,-3.347972870E0,1.834625363E0
1.393027096E1,-6.175446510E-2,-1.745783806E0,1.640444994E0
1.394209496E1,-1.578612328E-1,-1.161972046E0,9.736361504E-1
1.395022996E1,5.638003349E-3,-4.632682800E-1,1.144671440E-2
1.396037396E1,6.647098064E-2,4.379129410E-1,-5.672736168E-1
1.397040296E1,9.869670868E-2,1.205592155E0,-9.002521038E-1
1.398041696E1,2.503647804E-1,1.651547432E0,-1.382768631E0
1.399031996E1,4.873446226E-1,1.878967285E0,-1.354924679E0
1.400053996E1,5.672749281E-1,2.044661999E0,-1.115127563E0
1.401027896E1,6.322430372E-1,2.330627441E0,-9.670815468E-1
1.402048596E1,6.954358816E-1,2.692042351E0,-7.596585751E-1
1.403029796E1,7.372456789E-1,3.160745144E0,-4.682569504E-1
1.404037396E1,8.335083723E-1,3.515411377E0,-7.234215736E-2
1.405041796E1,8.486516476E-1,3.976195812E0,3.688502312E-1
1.406033496E1,1.011383533E0,4.261104584E0,1.141454339E0
1.407023296E1,9.533105493E-1,4.623548508E0,1.720506430E0
1.408046696E1,1.048313618E0,4.868792534E0,1.919606209E0
1.409026896E1,1.092406869E0,5.088771820E0,1.899872780E0
1.410082896E1,1.182101727E0,5.268067837E0,1.836702824E0
1.411045696E1,1.288751602E0,5.297924042E0,1.810916662E0
1.412029696E1,1.506480217E0,5.128468513E0,1.604443073E0
1.413027896E1,1.765521884E0,4.787501335E0,1.164501548E0
1.414028396E1,2.136101246E0,4.186839581E0,5.548467636E-1
1.415035196E1,2.406225204E0,3.362625599E0,-5.064761639E-2
1.416048496E1,2.479923725E0,2.495352745E0,-3.438069820E-1
1.417030496E1,2.503641844E0,1.729442120E0,-5.468775034E-1
1.418030896E1,2.495788336E0,1.147876740E0,-8.082956076E-1
1.419029696E1,2.488358498E0,7.835865021E-1,-9.291337729E-1
1.420037696E1,2.317187786E0,6.840181351E-1,-9.836947918E-1
1.421024196E1,2.029185057E0,7.774419785E-1,-9.243057966E-1
1.422024996E1,1.646621227E0,1.023368835E0,-8.321832418E-1
1.423034696E1,1.072034597E0,1.394908905E0,-9.890414476E-1
1.424060996E1,8.148286939E-1,1.393103600E0,-1.234793186E0
1.425028096E1,6.908177137E-1,1.321974754E0,-1.462535620E0
1.426025496E1,4.217564464E-1,1.186998367E0,-1.708816409E0
1.427037696E1,1.803160906E-1,9.671268463E-1,-1.884511590E0
1.428035896E1,4.920971394E-2,6.074790955E-1,-1.625746608E0
1.429029996E1,-1.697387695E-1,3.683614731E-1,-1.127373934E0
1.430023596E1,-4.509813786E-1,3.782577515E-1,-6.930506229E-1
1.431023796E1,-9.073752165E-1,5.587167740E-1,-4.539250135E-1
1.432038296E1,-1.208492041E0,5.988569260E-1,-2.942734957E-1
1.433031096E1,-1.395775676E0,3.966245651E-1,-1.979507208E-1
1.434037896E1,-1.240402699E0,-1.605062485E-1,-9.352231026E-2
1.435029996E1,-8.120206594E-1,-1.210247040E0,1.883943081E-1
1.436032396E1,-2.516005039E-1,-2.855330467E0,6.148667932E-1
1.437026696E1,1.558135152E-1,-4.871032715E0,1.143043041E0
1.438029196E1,4.774344563E-1,-7.044054031E0,1.799237251E0
1.439148696E1,6.526342034E-1,-9.057030678E0,2.563282967E0
1.440041296E1,4.982875586E-1,-1.036316490E1,3.419693947E0
1.441031896E1,8.200019598E-2,-1.077397633E1,4.039076805E0
1.442030196E1,-6.444365978E-1,-9.773656845E0,3.878971577E0
1.443034396E1,-1.572006345E0,-7.443461418E0,2.631778240E0
1.444050396E1,-1.849702835E0,-5.393259048E0,1.132126570E0
1.445052596E1,-1.492106676E0,-3.868349075E0,1.717664450E-1
1.446025896E1,-7.972050905E-1,-1.390127182E0,-2.203004658E-1
1.447035796E1,-8.941818476E-1,-2.415885925E-1,1.464794278E-1
1.448051796E1,-1.075297594E0,7.582254410E-1,5.622317195E-1
1.449032696E1,-1.117271304E0,1.474275589E0,8.954519033E-1
1.450040396E1,-1.107706308E0,1.938297272E0,1.182193160E0
1.451026596E1,-1.059162498E0,2.198468685E0,1.411062241E0
1.452027096E1,-1.000662684E0,2.272538662E0,1.553075314E0
1.453028996E1,-8.877068758E-1,2.236458778E0,1.673646331E0
1.454031096E1,-7.627404928E-1,2.157951355E0,1.741480827E0
1.455029096E1,-6.537706852E-1,2.140614986E0,1.672349930E0
1.456031396E1,-5.564977527E-1,2.200123787E0,1.529190540E0
1.457035596E1,-4.336513877E-1,2.343787193E0,1.345374227E0
1.458046896E1,-3.500051498E-1,2.510959625E0,1.138607144E0
1.459030896E1,-2.767915726E-1,2.648885250E0,1.008198500E0
1.460046296E1,-2.261134982E-1,2.781368256E0,8.838123083E-1
1.461059796E1,-1.811124682E-1,2.911833763E0,7.770709991E-1
1.462031896E1,-1.358333826E-1,3.023409367E0,6.101859212E-1
1.463025596E1,9.977698326E-3,3.040539265E0,3.581640124E-1
1.464029096E1,1.830443740E-1,2.961880207E0,1.362175941E-1
1.465031096E1,3.953648806E-1,2.705763340E0,-7.588088512E-2
1.466027096E1,6.507835984E-1,2.331920147E0,-4.614782929E-1
1.467024096E1,1.043934584E0,1.909527302E0,-1.230814219E0
1.468025596E1,1.672365665E0,1.386820793E0,-2.759069681E0
1.469030696E1,2.375525475E0,9.354934692E-1,-4.935154915E0
1.470036796E1,2.150093317E0,9.758062363E-1,-5.086687565E0
1.471026996E1,1.054662466E0,1.359071732E0,-2.897967815E0
1.472022496E1,6.463393569E-1,1.429331779E0,-9.626619816E-1
1.473021496E1,7.392466664E-1,1.250930786E0,4.317097664E-1
1.474027496E1,1.003285646E0,9.053239822E-1,1.078999400E0
1.475022996E1,1.436104774E0,2.448644638E-1,1.090644240E0
1.476026096E1,1.851466656E0,-3.133010864E-1,1.030613780E0
1.477033696E1,2.153736591E0,-6.075305939E-1,1.034469962E0
1.478034896E1,2.340743542E0,-6.829471588E-1,9.506249428E-1
1.479047896E1,2.523995161E0,-5.282783508E-1,5.726145506E-1
1.480027396E1,2.574813604E0,-2.429008484E-3,9.594166279E-2
1.481027196E1,2.466682911E0,8.443613052E-1,-3.981692791E-1
1.482048896E1,2.384248257E0,1.726074696E0,-1.044933438E0
1.483028996E1,2.378486872E0,2.409447670E0,-2.147195578E0
1.484025996E1,2.270725012E0,2.783438206E0,-3.119172573E0
1.485026296E1,1.692486048E0,2.607749939E0,-2.576413393E0
1.486041896E1,5.640302896E-1,2.334568977E0,-1.818624020E0
1.487029096E1,-2.261787653E-1,2.075804234E0,-2.371975422E0
1.488025996E1,-9.061222672E-1,1.586479187E0,-3.692280769E0
1.489026396E1,-1.472651601E0,9.570798874E-1,-4.392688274E0
1.490035896E1,-2.202075243E0,2.934465408E-1,-3.768554211E0
1.491026296E1,-3.005659103E0,-3.251266479E-1,-2.258618593E0
1.492049696E1,-3.727374077E0,-9.007453918E-1,1.484141350E-1
1.493057696E1,-3.627866507E0,-1.281360626E0,2.606684685E0
1.494043596E1,-2.488305569E0,-1.783576965E0,3.061301470E0
1.495023896E1,-9.972345233E-1,-2.511596680E0,2.052278042E0
1.496023496E1,1.285153627E-1,-3.758997917E0,2.077590942E0
1.497027296E1,6.089524627E-1,-5.200950623E0,3.238148689E0
1.498053696E1,6.773728132E-1,-7.093127251E0,3.874434471E0
1.499034096E1,5.470134616E-1,-1.080242538E1,1.194569826E0
1.500040096E1,1.252080798E-1,-1.111080551E1,6.471068859E-1
1.501025896E1,-4.987143874E-1,-9.708827972E0,9.717946053E-1
1.502068096E1,-7.170560360E-1,-7.024819374E0,1.721894026E0
1.503030096E1,-7.250857353E-1,-4.357589722E0,2.914352417E0
1.504061696E1,-4.356378913E-1,-2.570425034E0,3.332621574E0
1.505023796E1,-1.487380266E-1,-1.450899124E0,3.206941366E0
1.506098096E1,-4.328358173E-2,-6.841840744E-1,2.944676876E0
1.507024296E1,-6.854993105E-2,-1.793565750E-1,2.478466511E0
1.508046196E1,-2.193069458E-2,6.992340088E-2,1.832006812E0
1.509026096E1,1.076126695E-1,2.569618225E-1,1.131291866E0
1.510091496E1,3.512154222E-1,4.951143265E-1,2.415635586E-1
1.511032196E1,6.289513111E-1,5.342235565E-1,-1.500947475E-1
1.512054196E1,8.182433844E-1,4.120521545E-1,-3.317792416E-1
1.513027396E1,8.612324595E-1,3.122301102E-1,-5.816524029E-1
1.514031896E1,8.657790422E-1,5.855607986E-1,-6.247019768E-1
1.515030996E1,8.508049846E-1,1.151148796E0,-6.665968895E-1
1.516021796E1,8.637702465E-1,1.795241833E0,-7.990849018E-1
1.517026596E1,9.684198499E-1,2.422303677E0,-8.926992416E-1
1.518038696E1,1.074108124E0,2.942787170E0,-6.092870235E-1
1.519027196E1,1.335290551E0,3.198925495E0,1.360719204E-1
1.520040096E1,1.483267903E0,3.399291515E0,1.141172171E0
1.521025296E1,1.671440601E0,3.537065506E0,1.916910887E0
1.522024696E1,1.842120171E0,3.710945129E0,2.384609699E0
1.523033396E1,2.102442741E0,3.893364906E0,2.515410423E0
1.524028696E1,2.197910070E0,4.111082554E0,2.436853647E0
1.525024496E1,2.235694170E0,4.355578899E0,2.141410589E0
1.526022496E1,2.352177620E0,4.541674614E0,1.628435850E0
1.527039396E1,2.271744251E0,4.710474968E0,9.781974554E-1
1.528044796E1,1.882994652E0,4.934628963E0,1.583330631E-1
1.529026496E1,1.216806650E0,4.950699806E0,-6.339704990E-1
1.530028496E1,1.002968788E0,4.342336178E0,-1.378249407E0
1.531029996E1,1.196181059E0,3.268295288E0,-1.229084730E0
1.532037396E1,1.343443871E0,2.407772541E0,-7.835054398E-1
1.533027096E1,1.112613797E0,1.802542210E0,-4.481371641E-1
1.534023496E1,9.661136866E-1,1.386444092E0,-7.466963530E-1
1.535042396E1,3.170301914E-1,9.823942184E-1,-2.036650658E0
1.536035496E1,-5.391269326E-1,1.112971306E0,-4.453717232E0
1.537060096E1,-1.468393207E0,1.400605202E0,-7.733814716E0
1.538042396E1,-1.405474782E0,1.354755402E0,-8.800239563E0
1.539031596E1,-5.273687840E-2,3.645000458E-1,-5.183850288E0
1.540031896E1,1.001433730E0,-3.262414932E-1,-1.460743070E0
1.541026496E1,1.093062401E0,1.014566422E-1,5.388181210E-1
1.542027996E1,1.097024560E0,7.489709854E-1,2.187118530E0
1.543028496E1,1.307336569E0,1.150659561E0,3.085801601E0
1.544051696E1,1.287991524E0,1.347816467E0,3.254912615E0
1.545022796E1,1.071788430E0,1.251570702E0,2.948079586E0
1.546021596E1,6.380199194E-1,9.775905609E-1,2.406678915E0
1.547039796E1,2.296509743E-1,5.816516876E-1,1.911797047E0
1.548025896E1,-1.169950962E-1,3.395080566E-3,1.575590491E0
1.549055496E1,-2.992205024E-1,-6.422786713E-1,1.282019615E0
1.550026996E1,-3.764212728E-1,-1.365196228E0,1.100855827E0
1.551031696E1,-8.660316467E-3,-2.320068359E0,1.013913989E0
1.552033896E1,2.153674364E-1,-3.632555008E0,1.276052833E0
1.553026896E1,9.836416245E-1,-4.967040062E0,2.388790607E0
1.554030596E1,1.231620073E0,-7.849575996E0,2.973730564E0
1.555026096E1,1.478418827E0,-9.004693985E0,3.467365265E0
1.556052596E1,1.159031034E0,-9.663893700E0,3.745225191E0
1.557028796E1,6.461685896E-1,-9.160215378E0,3.296744585E0
1.558025596E1,8.120334148E-2,-7.554668427E0,1.947033644E0
1.559079396E1,5.369901657E-2,-5.621496201E0,7.547656298E-1
1.560029596E1,3.027067184E-1,-3.669799805E0,7.403147221E-2
1.561026896E1,4.650624990E-1,-2.051972389E0,-1.991378665E-1
1.562026596E1,4.125466347E-1,-6.624870300E-1,-2.306903601E-1
1.563027196E1,1.654876471E-1,6.044883728E-1,-1.211678982E-1
1.564062596E1,-7.646262646E-2,1.648076057E0,1.677010655E-1
1.565029496E1,-3.136440516E-1,2.506841660E0,3.885855079E-1
1.566029596E1,-4.471235275E-1,3.072571278E0,6.088806391E-1
1.567030096E1,-5.699753165E-1,3.342133045E0,7.829629183E-1
1.568028896E1,-6.928554177E-1,3.301186085E0,9.326280355E-1
1.569029996E1,-7.820981741E-1,2.999219418E0,1.066272616E0
1.570024796E1,-8.601694703E-1,2.436265945E0,1.131170273E0
1.571022596E1,-8.349515200E-1,1.685370922E0,1.131363750E0
1.572043996E1,-8.322335482E-1,9.890336990E-1,1.100141048E0
1.573049396E1,-8.280944824E-1,4.825086594E-1,9.732791781E-1
1.574041696E1,-9.151627421E-1,3.020439148E-1,8.130372167E-1
1.575030996E1,-1.095587015E0,4.628381729E-1,6.244038343E-1
1.576033096E1,-1.344278812E0,8.960714340E-1,3.546200991E-1
1.577029696E1,-1.485726357E0,1.449340820E0,-2.039092779E-1
1.578024996E1,-1.258053660E0,1.935279846E0,-1.390020013E0
1.579024296E1,-2.410420179E-1,1.963078976E0,-3.463199615E0
1.580033796E1,-2.568147182E-1,2.265928745E0,-4.074790955E0
1.581051896E1,-7.380113602E-1,2.933234692E0,-3.716895819E0
1.582031896E1,-1.077157021E0,3.658874512E0,-3.001161098E0
1.583031096E1,-1.053563595E0,4.293791294E0,-2.247930288E0
1.584057196E1,-9.688214064E-1,4.760769367E0,-1.475679159E0
1.585027396E1,-1.106219292E0,5.212926388E0,-9.398708344E-1
1.586094696E1,-1.459296227E0,5.653732300E0,-2.828435898E-1
1.587028396E1,-1.873128176E0,6.092997551E0,4.255559444E-1
1.588042796E1,-2.155303240E0,6.405604362E0,1.083183885E0
1.589026296E1,-2.257288933E0,6.604247570E0,1.438939810E0
1.590030396E1,-2.339114666E0,6.786998749E0,1.461034060E0
1.591027596E1,-2.219006062E0,6.831024170E0,1.302509546E0
1.592025596E1,-2.046575546E0,6.681190491E0,1.189271927E0
1.593027396E1,-1.871966362E0,6.243472099E0,1.245748281E0
1.594027296E1,-1.737904549E0,5.162217140E0,1.292746067E0
1.595048996E1,-2.015360594E0,3.796031475E0,1.462568283E0
1.596052996E1,-2.535103083E0,2.093887806E0,1.654877901E0
1.597024996E1,-2.890256882E0,-5.736474991E-1,3.892726660E0
1.598039996E1,-8.930035830E-1,-5.790299416E0,3.438890457E0
1.599032496E1,2.215654373E0,-1.335427380E1,-7.178535461E-1
1.600027696E1,2.993530750E0,-1.946136856E1,-4.329768658E0
1.601024596E1,2.100319386E0,-2.291364098E1,-3.891125202E0
1.602027796E1,2.823669434E0,-2.247743225E1,-1.822804451E0
1.603024996E1,1.787420392E0,-1.774481583E1,-2.754530907E-1
1.604025996E1,3.002957106E0,-1.330349827E1,-3.649258614E-1
1.605053696E1,2.782397270E0,-7.792766571E0,6.250596046E-1
1.606052696E1,2.574888468E0,-7.360906601E-1,1.818776727E0
1.607024496E1,2.362194061E0,1.209830761E0,1.998045444E0
1.608023496E1,2.109274387E0,2.631448746E0,2.253703117E0
1.609215596E1,1.716021895E0,3.632176399E0,2.038597822E0
1.610022896E1,1.011080146E0,4.437890053E0,1.218920469E0
1.611023696E1,4.993796349E-1,4.675083637E0,6.825447083E-3
1.612038896E1,1.515003443E-1,4.502131939E0,-1.297616482E0
1.613025496E1,1.966525316E-1,4.103927612E0,-3.312610149E0
1.614059196E1,5.389702320E-1,3.906460762E0,-6.078283310E0
1.615022796E1,1.447805643E0,4.430377007E0,-1.009956360E1
1.616038396E1,1.879870653E0,5.416557312E0,-1.337640285E1
1.617022896E1,2.104142904E0,5.788532257E0,-1.247669411E1
1.618042696E1,1.875824451E0,5.516498566E0,-8.570083618E0
1.619026996E1,1.553795815E0,5.052456856E0,-4.611638069E0
1.620021696E1,1.294363022E0,4.352035999E0,-1.092524529E0
1.621030496E1,8.078687191E-1,3.808198929E0,1.145042777E0
1.622025796E1,-8.924460411E-2,3.834462643E0,2.025331497E0
1.623035196E1,-6.305677891E-1,4.164957047E0,2.000259638E0
1.624041896E1,-7.762632370E-1,4.438454628E0,1.526819110E0
1.625030696E1,-5.544190407E-1,4.337803364E0,4.048814178E-1
1.626070196E1,-8.048868179E-2,3.864932537E0,-1.626308203E0
1.627027496E1,2.631170750E-1,3.188452721E0,-3.529390574E0
1.628026296E1,3.056929111E-1,2.386801243E0,-4.398307800E0
1.629255596E1,-1.955466270E-1,1.599509239E0,-2.042278528E0
1.631033296E1,-6.833646297E-1,-2.976236343E-1,2.594436646E0
1.632059396E1,-6.049530506E-1,-1.656616211E0,3.307669163E0
1.633033196E1,-6.275689602E-1,-3.349057198E0,3.724498749E0
1.634053496E1,-2.645583153E-1,-4.920308113E0,4.084471226E0
1.635028296E1,1.888206005E-1,-6.724463463E0,4.269181252E0
1.636035296E1,4.962494373E-1,-8.421958923E0,4.254986286E0
1.637029796E1,8.767609596E-1,-1.005038548E1,4.237054348E0
1.638026996E1,1.176016092E0,-1.143529320E1,4.173838139E0
1.639023196E1,4.600241184E-1,-1.251689720E1,4.079715729E0
1.640022996E1,-2.396135330E-1,-1.248227882E1,3.869919538E0
1.641024096E1,-2.236237526E-1,-1.143424511E1,4.169117928E0
1.642039896E1,-6.297001839E-1,-9.241102219E0,4.660707474E0
1.643025896E1,-1.063358307E0,-7.406237602E0,3.856616497E0
1.644038896E1,-8.779327869E-1,-6.292511940E0,2.954338074E0
1.645034696E1,-6.176779270E-1,-5.623194695E0,2.523744106E0
1.646053296E1,-4.477908611E-1,-5.109695435E0,2.197578430E0
1.647040496E1,-5.056405067E-1,-4.501311302E0,1.908091664E0
1.648024196E1,-7.931396961E-1,-3.692919731E0,1.554973722E0
1.649026296E1,-1.070164919E0,-2.716247559E0,1.256394267E0
1.650033996E1,-1.321913600E0,-1.628379822E0,1.122844338E0
1.651031996E1,-1.479513168E0,-5.441570282E-1,1.006911993E0
1.652036696E1,-1.551806331E0,3.726978302E-1,7.624112368E-1
1.653023396E1,-1.400743246E0,1.149215698E0,3.851789236E-1
1.654136096E1,-1.302470088E0,1.914546490E0,5.892324448E-2
1.655021196E1,-1.294496417E0,2.746924877E0,-3.079687357E-1
1.656023796E1,-1.701995492E0,3.516688824E0,-9.996883869E-1
1.657022196E1,-2.676733255E0,4.188045025E0,-1.446966410E0
1.658028596E1,-3.184669018E0,4.765540123E0,-1.568741083E0
1.659028896E1,-3.573985100E0,4.998059750E0,-1.897931099E0
1.660037096E1,-3.756063223E0,5.209451675E0,-2.115010262E0
1.661026996E1,-3.410594225E0,5.441531181E0,-2.340279579E0
1.662040996E1,-2.994925976E0,5.530595779E0,-2.741775274E0
1.663030096E1,-2.025529861E0,5.423699379E0,-2.986164093E0
1.664023896E1,-1.021011233E0,4.689247131E0,-2.976942778E0
1.665024096E1,-1.879084110E-1,3.878412724E0,-2.240918875E0
1.666024496E1,2.932786942E-2,3.713436604E0,-1.371326447E0
1.667021296E1,2.150146961E-1,3.625907898E0,-6.575058699E-1
1.668025496E1,3.150384426E-1,3.458812714E0,-1.794318557E-1
1.669038296E1,7.046835423E-1,2.928569794E0,4.543658197E-1
1.670023096E1,1.127293825E0,2.320240498E0,9.054297209E-1
1.671034196E1,1.420243502E0,1.453925133E0,1.033322453E0
1.672028596E1,2.035554409E0,4.782352448E-1,1.144877315E0
1.673024796E1,2.869590759E0,-7.371358871E-1,1.340162635E0
1.674028796E1,3.843018293E0,-2.093141556E0,1.502945542E0
1.675023696E1,4.645124435E0,-3.527223587E0,1.609381080E0
1.676073596E1,5.139403343E0,-4.604935646E0,1.169007063E0
1.677022296E1,5.274435520E0,-5.466330528E0,4.597153664E-1
1.678031396E1,5.440434456E0,-5.884070396E0,-6.365332603E-1
1.679029296E1,5.847669601E0,-5.775317192E0,-3.035157442E0
1.680034296E1,5.966134071E0,-5.117813110E0,-5.204569340E0
1.681027396E1,5.537618637E0,-3.406363487E0,-5.918550014E0
1.682034596E1,4.832231045E0,-2.364750862E0,-4.000366688E0
1.683031896E1,4.567507744E0,-1.902684212E0,-1.970013022E0
1.684025796E1,4.166256905E0,-2.041962624E0,-8.778747320E-1
1.685031496E1,3.960837364E0,-2.848958969E0,-7.018365860E-1
1.686024396E1,3.659298658E0,-3.226280212E0,-6.679857969E-1
1.687026096E1,2.896235228E0,-2.942353249E0,-6.212894917E-1
1.688028896E1,1.973689318E0,-2.265298843E0,-6.226935387E-1
1.689027596E1,1.027008533E0,-1.544240952E0,-5.985732079E-1
1.690031696E1,2.091298103E-1,-9.545707703E-1,-8.148609400E-1
1.691150996E1,-6.652276516E-1,-2.823038101E-1,-7.116383910E-1
1.692044096E1,-1.132376909E0,2.862873077E-1,-5.109481215E-1
1.693025396E1,-1.287628174E0,8.201770782E-1,-2.154342532E-1
1.694032696E1,-1.356776834E0,1.395205021E0,1.821282506E-1
1.695025496E1,-1.383593917E0,1.928869247E0,6.562632322E-1
1.696044196E1,-1.511602283E0,2.357193947E0,1.061799765E0
1.697024596E1,-1.772357821E0,2.500270367E0,1.391623855E0
1.698054996E1,-2.537894964E0,2.527876377E0,1.598310709E0
1.699058496E1,-3.380520344E0,2.279364109E0,1.210360169E0
1.700027996E1,-4.659857750E0,1.706985950E0,1.108515978E0
1.701026396E1,-6.070359230E0,7.802534103E-1,8.796411157E-1
1.702025196E1,-6.626884460E0,-5.735216141E-1,2.562620640E-1
1.703022996E1,-5.962935448E0,-2.284823418E0,-8.557770252E-1
1.704028396E1,-4.205555916E0,-3.709691048E0,-2.217296600E0
1.705026696E1,-2.790029526E0,-4.354019165E0,-2.593620300E0
1.706039196E1,-2.274065971E0,-4.186293602E0,-2.274165392E0
1.707050596E1,-2.167149782E0,-3.608684540E0,-1.228868961E0
1.708076396E1,-2.315923214E0,-2.511324883E0,1.054196358E-1
1.709027696E1,-2.584749222E0,-1.161035538E0,1.387035966E0
1.710026196E1,-2.711292267E0,6.602287292E-2,2.331055164E0
1.711024996E1,-2.423933029E0,1.085071564E0,2.537444592E0
1.712033596E1,-1.870515347E0,1.880886078E0,2.730250359E0
1.713036796E1,-1.937147021E0,2.119379520E0,1.843704820E0
1.714024996E1,-1.981530666E0,2.455388069E0,1.740728378E0
1.715030596E1,-2.160196304E0,2.833927631E0,1.760435581E0
1.716305696E1,-2.376356840E0,3.216541767E0,2.067928553E0
1.718043996E1,-2.457165718E0,3.293896198E0,1.643832207E0
1.719022696E1,-2.374448776E0,3.218177319E0,8.763754368E-1
1.720032896E1,-2.256216764E0,3.064472675E0,4.855680466E-1
1.721026696E1,-2.279523849E0,2.907236576E0,3.063135147E-1
1.722043396E1,-2.298281431E0,2.559797764E0,4.246068001E-1
1.723023796E1,-2.311873436E0,2.138585091E0,7.127139568E-1
1.724078996E1,-2.234322548E0,1.649072170E0,1.126785755E0
1.725018996E1,-1.920213461E0,1.046652794E0,1.598906994E0
1.726021896E1,-1.463179350E0,3.582859039E-1,1.926023602E0
1.727025196E1,-1.019992471E0,-2.978048325E-1,2.319306850E0
1.728032296E1,-5.734986067E-1,-8.882894516E-1,2.731857300E0
1.729025696E1,-2.344334126E-1,-1.411607742E0,3.013842106E0
1.730024896E1,4.856443405E-2,-1.773056984E0,3.134596348E0
1.731085996E1,3.320055008E-1,-1.965486526E0,3.120314121E0
1.732024896E1,5.894534588E-1,-2.002473831E0,3.015322208E0
1.733026196E1,8.974204063E-1,-1.839502335E0,2.849732876E0
1.734052296E1,1.209737062E0,-1.539649963E0,2.538918018E0
1.735023096E1,1.489238977E0,-1.054524422E0,2.078601360E0
1.736041896E1,1.998148799E0,-4.790077209E-1,8.243267536E-1
1.737027396E1,2.831791162E0,-5.009651184E-2,-1.994800210E0
1.738073496E1,4.551790714E0,1.268730164E-1,-7.770564079E0
1.739025196E1,4.913877964E0,6.113767624E-1,-1.058431435E1
1.740024296E1,4.283554077E0,9.423942566E-1,-8.477167130E0
1.741036596E1,2.942549706E0,1.325324059E0,-5.811866760E0
1.742044696E1,2.121846199E0,1.681613445E0,-4.561965942E0
1.743025696E1,2.189749002E0,1.683489799E0,-4.168080330E0
1.744030696E1,3.261496782E0,8.135242462E-1,-4.186537266E0
1.745037596E1,4.320719719E0,-6.017179489E-1,-4.194705963E0
1.746023896E1,4.101645470E0,-9.362058640E-1,-2.956442595E0
1.747025496E1,3.128367901E0,-8.549518585E-1,-1.233911753E0
1.748031496E1,2.454079866E0,-1.390349388E0,3.847539425E-1
1.749031396E1,2.183579922E0,-2.138504028E0,1.642672539E0
1.750028096E1,2.067137718E0,-2.757489204E0,2.662519932E0
1.751026296E1,1.938974857E0,-3.349845886E0,3.043693066E0
1.752025096E1,1.829270840E0,-4.033276558E0,3.065503359E0
1.753026196E1,1.816572428E0,-4.729823112E0,2.802317858E0
1.754034396E1,1.332014322E0,-5.532005310E0,2.422274113E0
1.755024396E1,9.537632465E-1,-6.006690025E0,1.901929021E0
1.756022496E1,7.171297073E-2,-5.654576302E0,1.154764533E0
1.757027896E1,-1.174450159E0,-4.457522392E0,-5.326905251E-1
1.758043796E1,-2.291839838E0,-3.122918129E0,-3.848933220E0
1.759026896E1,-3.143862486E0,-7.990884781E-1,-3.958507061E0
1.760023996E1,-3.591425180E0,7.699480057E-1,-2.401275158E0
1.761030396E1,-3.244395733E0,1.589582920E0,-1.551391840E0
1.762040396E1,-2.968762636E0,2.251551628E0,-8.811234832E-1
1.763027996E1,-2.847981930E0,2.927160263E0,-7.310948968E-1
1.764057396E1,-2.796169281E0,3.541754723E0,-7.034522295E-1
1.765034196E1,-2.801237583E0,4.067786217E0,-6.809673905E-1
1.766099996E1,-3.214933157E0,4.611579895E0,-2.614864111E-1
1.767024696E1,-3.173311949E0,4.616880417E0,-1.803466082E-1
1.768073096E1,-3.691549301E0,3.876964092E0,4.631780684E-1
1.769029596E1,-4.072530746E0,3.175454140E0,8.864946365E-1
1.770071396E1,-4.407114029E0,2.281397343E0,1.275940061E0
1.771033296E1,-4.698613644E0,1.233690262E0,1.621151090E0
1.772151896E1,-4.947203636E0,-5.475997925E-3,1.998479128E0
1.773026996E1,-5.081881046E0,-1.312554359E0,2.266762257E0
1.774075996E1,-5.132204056E0,-2.651884079E0,2.505939484E0
1.775034496E1,-5.203464031E0,-4.096249580E0,2.610605240E0
1.776158796E1,-5.146130562E0,-5.423543930E0,2.518454552E0
1.777044596E1,-4.713871002E0,-6.486225128E0,2.230858326E0
1.778121396E1,-4.150314808E0,-7.014619827E0,1.986520767E0
1.779042996E1,-3.759228706E0,-6.945356369E0,2.024068356E0
1.780062096E1,-3.605695248E0,-5.771982193E0,2.075297594E0
1.781033696E1,-3.583514452E0,-3.889456749E0,1.661960363E0
1.782257396E1,-3.386866093E0,-2.147820473E0,1.085869074E0
1.784021496E1,-2.903631687E0,4.214477539E-1,4.307920337E-1
1.785031396E1,-2.757871151E0,1.285743713E0,3.693964481E-1
1.786034496E1,-2.699029684E0,1.957428455E0,4.011717439E-1
1.787037796E1,-2.643558502E0,2.408967972E0,4.927893877E-1
1.788025496E1,-2.513138056E0,2.659084320E0,6.497034431E-1
1.789228396E1,-2.357656717E0,2.772581100E0,8.083988428E-1
1.791023696E1,-2.118927717E0,2.619343281E0,1.154805422E0
1.792136596E1,-1.917035222E0,2.371613026E0,1.286822915E0
1.793024496E1,-1.695779920E0,2.050861359E0,1.425311685E0
1.794043996E1,-1.504106760E0,1.734928608E0,1.561713934E0
1.795025396E1,-1.293760896E0,1.380660057E0,1.716277242E0
1.796040596E1,-1.047288418E0,9.735441208E-1,1.848523021E0
1.797020196E1,-8.335124850E-1,5.262441635E-1,1.922717214E0
1.798025596E1,-4.740221500E-1,-4.634094238E-2,1.918457866E0
1.799025096E1,-6.989240646E-2,-5.348558426E-1,1.902472734E0
1.800023496E1,3.317393064E-1,-9.149589539E-1,1.880465746E0
1.801018796E1,6.784037352E-1,-1.097436905E0,1.821882844E0
1.802048496E1,9.626493454E-1,-1.105600357E0,1.637019396E0
1.803031496E1,1.246919274E0,-1.014525414E0,1.456047893E0
1.804045696E1,1.471898913E0,-7.806577682E-1,1.285220504E0
1.805021996E1,1.634891748E0,-4.371480942E-1,1.168727040E0
1.806042596E1,1.751356363E0,7.454109192E-2,1.279513240E0
1.807040796E1,1.825268149E0,6.876163483E-1,1.041027546E0
1.808051196E1,1.829628706E0,1.127542496E0,9.402984381E-1
1.809070896E1,1.943871021E0,1.476557732E0,7.022635341E-1
1.810026196E1,2.314607382E0,1.528013229E0,5.733432174E-1
1.811079296E1,2.731456280E0,1.317892075E0,4.809800386E-1
1.812033696E1,3.132293701E0,1.138322830E0,4.932055473E-1
1.813048596E1,3.307040691E0,9.892807007E-1,4.318284988E-1
1.814044796E1,3.427580357E0,8.209161758E-1,4.171180725E-1
1.815027296E1,3.463221073E0,7.027320862E-1,5.151095390E-1
1.816047696E1,3.463943958E0,5.650587082E-1,6.640815735E-1
1.817031296E1,3.520669460E0,4.328756332E-1,8.399335742E-1
1.818062696E1,3.595627069E0,3.442258835E-1,9.108726382E-1
1.819097996E1,4.111086369E0,2.368001938E-1,-1.247914791E0
1.820109196E1,4.309791565E0,-3.616724014E-1,5.925962329E-1
1.821027896E1,4.384816170E0,-6.272306442E-1,1.481579781E0
1.822031796E1,4.373222828E0,-9.564237595E-1,1.211306691E0
1.823043096E1,4.432671070E0,-1.320325851E0,3.639767766E-1
1.824027696E1,4.498044014E0,-1.524131775E0,-1.611264110E0
1.825023196E1,4.679326534E0,-1.494998932E0,-3.775513172E0
1.826020096E1,4.542951584E0,-1.084996223E0,-4.353832722E0
1.827022296E1,4.052473068E0,-7.141771317E-1,-3.138936520E0
1.828062196E1,3.834439278E0,-1.055837631E0,-1.464199305E0
1.829026696E1,3.613159657E0,-1.446765900E0,-1.116176605E0
1.830023996E1,3.392733812E0,-1.882916451E0,-1.500745654E0
1.831045096E1,3.074213505E0,-2.555191040E0,-1.496793985E0
1.832025096E1,2.875890255E0,-3.215759277E0,-1.386393547E0
1.833028796E1,2.486966610E0,-3.651787758E0,-1.242126226E0
1.834022496E1,1.494017363E0,-3.190464973E0,-1.224159718E0
1.835025696E1,3.954412937E-1,-2.377044678E0,-1.198425531E0
1.836028396E1,-4.763498306E-1,-1.592280388E0,-1.799156904E0
1.837030196E1,-1.043744326E0,-8.671083450E-1,-2.024847507E0
1.838028196E1,-1.244343996E0,-3.091411591E-1,-1.746358871E0
1.839028196E1,-1.074509859E0,7.076358795E-2,-1.450394988E0
1.840032696E1,-8.719981313E-1,3.739318848E-1,-1.394304395E0
1.841067196E1,-1.117633343E0,6.877279282E-1,-1.753428459E0
1.842025796E1,-1.704566002E0,6.398353577E-1,-2.682214737E0
1.843031396E1,-2.747156143E0,4.013633728E-1,-4.077007294E0
1.844045996E1,-4.375003338E0,7.489776611E-2,-5.407545567E0
1.845024696E1,-6.207268715E0,-4.188117981E-1,-4.389678001E0
1.846038096E1,-6.720930099E0,-9.300432205E-1,-8.276994228E-1
1.847026496E1,-5.990129471E0,-1.486102104E0,8.711436391E-1
1.848024296E1,-5.127819538E0,-1.750882149E0,2.425003052E-1
1.849023296E1,-4.275538445E0,-1.827096939E0,-6.409670115E-1
1.850038096E1,-3.180531263E0,-1.677053452E0,-1.245890498E0
1.851030296E1,-2.680120468E0,-1.112818718E0,-1.240282774E0
1.852025296E1,-2.377609253E0,-2.361049652E-1,-9.479682446E-1
1.853028696E1,-2.416023493E0,9.231376648E-1,-5.973714590E-1
1.854031696E1,-2.536109924E0,1.975524902E0,-3.902131915E-1
1.855022996E1,-2.462394953E0,2.821553707E0,2.309095860E-2
1.856055296E1,-2.345912933E0,3.497428417E0,3.678307831E-1
1.857028896E1,-2.181860447E0,3.892700672E0,5.668037534E-1
1.858032396E1,-2.110721588E0,4.159675121E0,4.540401101E-1
1.859040796E1,-2.068025589E0,4.019749641E0,3.936249018E-1
1.860026596E1,-2.032118797E0,3.791535378E0,1.426250935E-1
1.861025896E1,-1.894285321E0,3.396184921E0,9.589183331E-2
1.862025296E1,-1.663033962E0,2.789491653E0,6.836640835E-2
1.863026296E1,-1.396942377E0,2.113985062E0,-3.933095932E-2
1.864032196E1,-1.141122818E0,1.520538330E0,-3.279464841E-1
1.865024796E1,-8.921748400E-1,1.051064491E0,-8.107746840E-1
1.866041896E1,-6.155161262E-1,7.089052200E-1,-1.428630948E0
1.867029396E1,-3.327390254E-1,4.588994980E-1,-2.133054733E0
1.868050096E1,-2.902299464E-1,4.167165756E-1,-2.549499273E0
1.869024496E1,-4.197036624E-1,3.568868637E-1,-2.189832211E0
1.870089996E1,-5.210080743E-1,1.632184982E-1,-1.220295191E0
1.871031196E1,-4.597578645E-1,-1.450538635E-1,-1.666971445E-1
1.872028496E1,-1.921370625E-1,-4.648895264E-1,6.976518035E-1
1.873048796E1,9.923583269E-2,-6.239099503E-1,1.346386671E0
1.874036396E1,4.061006308E-1,-6.387901306E-1,2.044758558E0
1.875026096E1,9.701735973E-1,-1.049442291E-1,2.018811226E0
1.876030696E1,1.121791124E0,4.383268356E-1,1.680053353E0
1.877060296E1,1.287878275E0,1.068510056E0,9.924900532E-1
1.878027596E1,1.523759484E0,1.738032341E0,-2.477732301E-1
1.879042796E1,1.702127576E0,2.487417221E0,-2.116447687E0
1.880039496E1,1.724398494E0,3.190384865E0,-4.137921810E0
1.881040696E1,1.600504637E0,3.587314606E0,-4.885823250E0
1.882037396E1,1.285905242E0,3.356962204E0,-3.160372019E0
1.883027296E1,9.594968557E-1,2.995458126E0,-1.214299917E0
1.884033696E1,5.834731460E-1,2.932709694E0,-3.575491905E-1
1.885035596E1,3.176177740E-1,2.983332634E0,-3.092882633E-1
1.886121796E1,2.762818336E-1,3.061368465E0,-5.960193872E-1
1.887034896E1,4.095817804E-1,3.102056026E0,-9.161288142E-1
1.888054796E1,4.965008497E-1,3.341605663E0,-1.270457506E0
1.889078796E1,5.603253841E-1,3.585077763E0,-1.444944382E0
1.890062096E1,7.154656649E-1,3.549567699E0,-1.416165233E0
1.891034896E1,9.045878649E-1,3.285445213E0,-1.116872787E0
1.892023996E1,1.038713694E0,2.840462208E0,-5.252957940E-1
1.893051296E1,1.065080285E0,2.369250298E0,5.666911602E-2
1.894037996E1,1.041517258E0,1.950935841E0,3.526789546E-1
1.895028496E1,1.002301931E0,1.618496895E0,4.172150791E-1
1.896035596E1,9.178465605E-1,1.392349243E0,3.177999258E-1
1.897023796E1,8.302823305E-1,1.335159302E0,-5.553424358E-3
1.898033596E1,6.109173298E-1,1.537843704E0,-6.021741033E-1
1.899028296E1,2.380477190E-1,1.993235111E0,-1.474626780E0
1.900028096E1,-2.275450230E-1,2.584056854E0,-2.345082283E0
1.901025696E1,-6.851662993E-1,3.208795547E0,-3.138272524E0
1.902029596E1,-1.135434270E0,3.592006683E0,-3.777356625E0
1.903030796E1,-1.290680170E0,3.513889790E0,-4.357925415E0
1.904027996E1,-1.070107937E0,3.210213184E0,-4.298892975E0
1.905029096E1,-7.341849208E-1,3.634039402E0,-2.083885670E0
1.906099496E1,-4.202146530E-1,4.519395351E0,6.492011547E-1
1.907031396E1,-3.258795738E-1,5.019503593E0,1.986828566E0
1.908080796E1,-3.771365881E-1,4.970115662E0,1.603726029E0
1.909027396E1,-2.663013935E-1,4.138438702E0,1.087395549E0
1.910033696E1,-1.154184341E-3,2.685336590E0,7.221065760E-1
1.911035996E1,3.652873039E-1,8.143043518E-1,2.870525718E-1
1.912029596E1,7.708472013E-1,-1.616957664E0,-4.688620567E-3
1.913031596E1,1.304191709E0,-4.783124924E0,-1.053581238E-1
1.914037496E1,1.854819417E0,-8.560606956E0,-2.544364929E-1
1.915030096E1,2.527813435E0,-1.283410835E1,-2.138098478E-1
1.916028496E1,3.805984259E0,-1.690710640E1,4.717981517E-1
1.917186096E1,3.595443487E0,-1.868918991E1,2.646226883E0
1.918039496E1,2.148898602E0,-1.580108643E1,4.153891563E0
1.919027696E1,-1.120235920E-1,-1.031300735E1,2.950704336E0
1.920047796E1,-5.473310947E-1,-5.894946098E0,1.011318684E0
1.921025696E1,-3.182916641E-1,-3.307264328E0,-2.222167403E-1
1.922027796E1,-1.790418625E-1,-1.368463516E0,-7.359111309E-1
1.923034496E1,-2.022905350E-1,1.441020966E-1,-1.025370479E0
1.924029096E1,-2.207777500E-1,1.171032906E0,-9.757604003E-1
1.925041396E1,-3.983941078E-1,2.014141083E0,-5.776619911E-1
1.926054196E1,-6.232467890E-1,2.549203873E0,1.635250449E-2
1.927026296E1,-1.121874094E0,3.025861263E0,4.305596352E-1
1.928045896E1,-1.540553212E0,3.021619797E0,1.102389812E0
1.929036596E1,-1.948721409E0,2.277534962E0,1.319742918E0
1.930036196E1,-1.854787111E0,1.702842236E0,1.375083923E0
1.931031896E1,-1.712483168E0,1.166840553E0,1.283866763E0
1.932065796E1,-1.601943135E0,8.714761734E-1,1.165507317E0
1.933116596E1,-1.610078692E0,7.821578979E-1,9.699603319E-1
1.934027896E1,-1.723574877E0,9.085083008E-1,7.981534004E-1
1.935038496E1,-1.918639302E0,1.186832428E0,5.716590881E-1
1.936039596E1,-2.126427412E0,1.507425785E0,2.940850258E-1
1.937027796E1,-2.314247370E0,1.803719997E0,3.257772326E-2
1.938059096E1,-2.329096794E0,1.953964710E0,-3.154267967E-1
1.939024996E1,-2.018394470E0,1.946602345E0,-1.236461878E0
1.940027596E1,-8.487539291E-1,1.583842278E0,-3.670156717E0
1.941028896E1,-2.997126579E-1,1.444462299E0,-5.799789429E0
1.942019996E1,-1.301098466E0,1.980001450E0,-5.177042484E0
1.943026396E1,-1.945444107E0,2.462406158E0,-4.278520584E0
1.944025196E1,-2.025515318E0,2.878853321E0,-3.216253042E0
1.945020796E1,-1.654009581E0,2.974301815E0,-1.984680891E0
1.946028296E1,-1.122668505E0,2.882698059E0,-1.675211787E0
1.947053596E1,-6.454021931E-1,2.872047901E0,-2.464610100E0
1.948038196E1,-4.654705524E-1,2.678953171E0,-3.491555691E0
1.949031996E1,-1.158092499E0,2.658651829E0,-3.731901884E0
1.950022296E1,-2.086941957E0,2.677947521E0,-3.232894659E0
1.951034896E1,-3.008410931E0,2.908688545E0,-2.026841164E0
1.952025596E1,-3.804796219E0,2.917107582E0,-8.456634283E-1
1.953022996E1,-4.001895905E0,2.506294727E0,-7.280898094E-2
1.954045196E1,-3.728092432E0,1.740658760E0,4.419027567E-1
1.955031296E1,-3.345432043E0,7.759170532E-1,9.555554390E-1
1.956040596E1,-2.641522646E0,-5.693922043E-1,1.066381931E0
1.957026696E1,-2.083113909E0,-2.312206268E0,1.189618468E0
1.958050396E1,-1.285824299E0,-4.587351799E0,1.445121646E0
1.959041796E1,-4.573678970E-2,-7.752861977E0,1.223559737E0
1.960026696E1,1.200160503E0,-1.143088436E1,9.413949251E-1
1.961026096E1,1.778237581E0,-1.451316547E1,1.166326046E0
1.962039496E1,1.957904339E0,-1.569417953E1,1.621161222E0
1.963034596E1,1.704104900E0,-1.380200291E1,1.497146368E0
1.964024296E1,4.517951012E-1,-9.514258385E0,8.377923965E-1
1.965021396E1,-2.849872112E-1,-5.736616135E0,3.860038519E-1
1.966024296E1,-5.462918282E-1,-2.949343681E0,2.202365398E-1
1.967025496E1,-6.679270267E-1,-8.970737457E-1,-8.331155777E-2
1.968030996E1,-7.260518074E-1,6.005077362E-1,-2.486978769E-1
1.969025496E1,-7.317785025E-1,1.762694359E0,-1.606332064E-1
1.970083096E1,-7.851319313E-1,2.717522621E0,1.618648767E-1
1.971034096E1,-7.900953293E-1,3.376046658E0,6.895365715E-1
1.972025596E1,-7.920783758E-1,3.803909779E0,9.075527787E-1
1.973023596E1,-6.387310028E-1,3.899879456E0,7.151057720E-1
1.974027896E1,-3.786830902E-1,3.690791607E0,-7.673263550E-3
1.975027796E1,1.601123810E-2,3.255254745E0,-1.071919203E0
1.976027696E1,4.430477619E-1,2.555966854E0,-1.801536083E0
1.977018096E1,8.091323376E-1,1.908596516E0,-2.567466736E0
1.978027196E1,1.190296173E0,1.552085400E0,-3.645301819E0
1.979026996E1,1.430906296E0,1.527889729E0,-4.457901001E0
1.980030496E1,1.468175173E0,1.714866161E0,-4.424502850E0
1.981026396E1,1.139252901E0,2.010079861E0,-2.335373402E0
1.982065996E1,4.552855492E-1,3.324936867E0,-2.635357380E-1
1.983030296E1,4.202651978E-2,4.146583557E0,-1.011576653E-1
1.984052996E1,-3.184790611E-1,4.880439758E0,9.861111641E-3
1.985153896E1,-6.430916786E-1,5.472703457E0,2.798990011E-1
1.986057296E1,-9.980646372E-1,6.017861366E0,6.407761574E-1
1.987029396E1,-1.314982653E0,6.540404320E0,7.625285387E-1
1.988046296E1,-1.627665997E0,7.079230309E0,6.050311327E-1
1.989037296E1,-1.791279316E0,7.512633324E0,2.345876098E-1
1.990028796E1,-1.693782568E0,7.907613277E0,-5.761451721E-1
1.991033896E1,-1.308152437E0,8.104078293E0,-2.621879339E0
1.992022796E1,-7.569527626E-1,7.377246857E0,-4.961978436E0
1.993034096E1,-1.339650512E0,7.302691936E0,-1.118396997E0
1.994029896E1,-1.728847742E0,7.423625946E0,1.444864035E0
1.995027896E1,-1.453540325E0,6.659448147E0,1.201936960E0
1.996060996E1,-6.961591244E-1,4.882069111E0,3.689315021E-1
1.997025296E1,1.743407249E-1,2.190772057E0,-4.634616971E-1
1.998047996E1,2.129136801E0,-2.669059753E0,-4.252132177E-1
1.999030696E1,4.714134216E0,-1.061916065E1,-5.150234699E-2
2.000053996E1,5.390251637E0,-1.787166214E1,-2.671599388E-3
2.001044196E1,5.019515991E0,-2.217986679E1,2.615092397E-1
2.002083196E1,4.657580853E0,-2.396720886E1,-1.104705811E0
2.003028496E1,2.834863424E0,-1.913226509E1,-4.325976849E0
2.004107896E1,3.505373001E-2,-1.059213257E1,-4.807704926E0
2.005055996E1,-2.287893295E-1,-5.616179466E0,-2.676650047E0
2.006056896E1,1.700365543E-1,-2.708564758E0,-1.076638699E0
2.007040996E1,2.983915806E-1,-5.018920898E-1,-8.539288044E-1
2.008096196E1,3.061723709E-2,1.253375053E0,-9.626563191E-1
2.009057396E1,-2.204592228E-1,2.459522724E0,-5.954032540E-1
2.010040996E1,-2.693886757E-1,3.092381477E0,-3.340892196E-1
2.011037796E1,-3.634219170E-1,3.529873848E0,-4.075478911E-1
2.012029696E1,-1.416990757E-1,3.453136921E0,-4.351333380E-1
2.013022696E1,1.724917889E-1,2.896572113E0,-5.628943443E-1
2.014044496E1,5.966303349E-1,1.953105927E0,-7.466091514E-1
2.015040496E1,7.242236137E-1,1.039250374E0,-7.359380126E-1
2.016040796E1,4.682779312E-1,3.919878006E-1,-3.790163398E-1
2.017022996E1,2.092480659E-2,-8.813858032E-2,-1.860380173E-3
2.018047196E1,-3.724658489E-1,-4.759473801E-1,3.096927106E-1
2.019051996E1,-6.889107227E-1,-6.863613129E-1,5.598747730E-1
2.020028896E1,-1.086060643E0,-6.078433990E-1,7.866097689E-1
2.021026696E1,-1.552119732E0,-3.009309769E-1,9.101276398E-1
2.022034596E1,-1.883888125E0,1.118946075E-1,1.077969790E0
2.023030696E1,-2.173176765E0,6.504602432E-1,1.237332821E0
2.024034796E1,-2.350063562E0,1.230106354E0,1.391744018E0
2.025028396E1,-2.491497755E0,1.883776665E0,1.615067244E0
2.026033096E1,-2.536139727E0,2.527401447E0,1.841315985E0
2.027027296E1,-2.478347301E0,3.055638313E0,2.017831564E0
2.028032096E1,-2.347784996E0,3.512421131E0,2.166289806E0
2.029020396E1,-2.180555105E0,3.893658638E0,2.265157461E0
2.030032296E1,-2.037710667E0,4.216817856E0,2.324182034E0
2.031074896E1,-1.913994074E0,4.432758808E0,2.334203959E0
2.032150196E1,-1.816894054E0,4.504818916E0,2.328804016E0
2.033027096E1,-1.756826162E0,4.480923653E0,2.268944740E0
2.034026596E1,-1.575537205E0,4.159064293E0,2.163817406E0
2.035026496E1,-1.327899218E0,3.630612850E0,1.799028039E0
2.036029996E1,-7.902541161E-1,2.011908054E0,1.591946483E0
2.037024596E1,1.642186642E-1,7.007989883E-1,-1.578791022E0
2.038031296E1,1.477351427E0,-9.659042358E-1,-9.303543091E0
2.039038296E1,9.010865688E-1,-1.974662781E0,-9.236356735E0
2.040028496E1,-3.289628029E-2,-2.493394852E0,-3.242500305E0
2.041030796E1,-3.585708141E-1,-3.409667015E0,1.401698470E0
2.042150596E1,3.711266518E-1,-5.642025948E0,3.173480272E0
2.043025596E1,1.407387257E0,-8.446928978E0,3.433660507E0
2.044022696E1,2.749618530E0,-1.132906151E1,2.287309885E0
2.045025096E1,3.788944006E0,-1.325922966E1,-3.783928156E-1
2.046044496E1,2.129309654E0,-1.111863708E1,-2.775840759E0
2.047028396E1,1.615028858E0,-9.064764023E0,-3.254914284E0
2.048027196E1,1.921957016E0,-7.200853348E0,-3.039080143E0
2.049041396E1,1.571202040E0,-4.819293022E0,-1.778798223E0
2.050033696E1,1.176978588E0,-2.669198990E0,-7.980769873E-1
2.051028596E1,9.152643681E-1,-9.025249481E-1,-1.565908194E-1
2.052017596E1,5.028028488E-1,6.694850922E-1,-6.887257099E-2
2.053026596E1,1.712262630E-1,1.999051571E0,-2.911469936E-1
2.054038896E1,-5.737614632E-2,2.992445946E0,-4.131444693E-1
2.055026296E1,-2.260954380E-1,3.751181602E0,-3.071094751E-1
2.056021196E1,-2.332139015E-1,4.164777279E0,-1.642005444E-1
2.057025696E1,-1.073462963E-1,4.234843254E0,2.443451285E-1
2.058017896E1,8.614134789E-2,4.026022434E0,5.923200250E-1
2.059039596E1,2.130029202E-1,3.667135715E0,1.883973479E-1
2.060042596E1,2.665312290E-1,3.301205635E0,-2.422541380E-1
2.061020696E1,3.417522907E-1,2.954102516E0,-5.313043594E-1
2.062457196E1,4.509708881E-1,2.734715462E0,-1.449569821E0
2.064026696E1,6.174299717E-1,2.848624229E0,-3.078067780E0
2.065019396E1,5.729329586E-1,3.045340538E0,-2.696943521E0
2.066029796E1,4.868986607E-1,3.251086235E0,-2.111803532E0
2.067022096E1,4.760017395E-1,3.350129604E0,-1.280428529E0
2.068026596E1,5.167214870E-1,3.507513523E0,-7.882740498E-1
