"Time (s)","Linear Acceleration x (m/s^2)","Linear Acceleration y (m/s^2)","Linear Acceleration z (m/s^2)"
8.595521000E-3,3.229045868E-2,-2.515182495E-1,-1.556968689E-1
3.023777100E-2,1.244673729E-1,-2.431387901E-1,-1.963982582E-1
4.602739600E-2,1.017224789E-1,-2.455329895E-1,-2.885751724E-1
5.895270800E-2,1.537094116E-1,-2.299637794E-1,-3.148355484E-1
7.080786400E-2,2.395501137E-1,-2.423005104E-1,-3.965077400E-1
8.136194200E-2,3.480546474E-1,-2.641324997E-1,-2.014489174E-1
9.169298100E-2,1.395938396E-1,-3.249664307E-1,-4.945025444E-1
1.017720010E-1,1.884953976E-1,-2.097744942E-1,-2.698764801E-1
1.118290110E-1,3.811743259E-1,-2.631540298E-1,-1.299891472E-1
1.219480160E-1,2.739338875E-1,-4.427571297E-1,-1.595854759E-1
1.318690180E-1,1.733250618E-1,-2.538771629E-1,-3.929514885E-1
1.419325190E-1,2.943949699E-1,-2.226114273E-1,-2.176113129E-1
1.519317700E-1,3.490314484E-1,-1.708025932E-1,3.521919250E-2
1.623323950E-1,2.783863544E-1,-2.821249962E-1,1.250872612E-1
1.721027080E-1,3.411667347E-1,-5.086851120E-2,3.005189896E-1
1.820098640E-1,4.266614914E-1,-2.618074417E-2,5.375614166E-1
1.923259420E-1,3.427491188E-1,8.649206161E-2,6.131157875E-1
2.021134810E-1,2.203183174E-1,-3.242206573E-2,6.034355164E-1
2.120487510E-1,-9.764623642E-2,3.578515053E-1,3.881821632E-1
2.219608860E-1,2.313575745E-1,2.441921234E-1,5.823454857E-1
2.318874530E-1,4.782671928E-1,1.687693596E-1,4.980549812E-1
2.419502370E-1,-2.062559128E-1,4.495964050E-1,-1.245360374E-1
2.518836290E-1,-4.058468342E-1,7.998337746E-1,5.904703140E-1
2.619433250E-1,-1.719937325E-1,7.409763336E-1,9.075722694E-1
2.718726730E-1,-3.758702278E-1,9.477434158E-1,8.991556168E-1
2.819223470E-1,-1.217103004E-2,7.913413048E-1,8.487906456E-1
2.918631840E-1,1.078121781E0,-2.838516235E-1,4.266920090E-1
3.018546020E-1,1.911957264E0,-9.426760674E-1,1.908297539E-1
3.123498110E-1,1.611759067E0,-6.416239738E-1,5.228290558E-1
3.222514160E-1,8.443526030E-1,-1.214203835E-1,9.159126282E-1
3.320872180E-1,1.375675201E-1,7.545900345E-2,1.457244873E0
3.425071190E-1,-4.626542330E-1,1.886830330E-1,2.059357643E0
3.521470700E-1,-5.550775528E-1,5.035576820E-1,2.768554211E0
3.625295450E-1,-6.259480715E-1,1.206912994E-1,2.937781811E0
3.721587830E-1,-5.168819427E-1,2.214488983E-1,3.056014061E0
3.821144020E-1,1.132861376E-1,-4.930520058E-1,3.609890461E0
3.923737110E-1,7.727010250E-1,-1.461197376E0,4.333076477E0
4.021228660E-1,1.286508918E0,-2.234900951E0,4.319932938E0
4.119774430E-1,1.703449965E0,-2.597033501E0,4.046319962E0
4.219157320E-1,1.825270176E0,-2.519114017E0,3.597248077E0
4.318663760E-1,8.080323935E-1,-9.612836838E-1,2.745431900E0
4.419341980E-1,-7.001653910E-1,-6.271266937E-1,2.018535137E0
4.518666090E-1,-1.504705548E0,-8.434662819E-1,1.746094227E0
4.622193150E-1,-1.625418782E0,-4.916229248E-1,1.384444714E0
4.720236680E-1,-1.218334198E0,-3.377566338E-1,1.070357323E0
4.819718440E-1,1.450207829E-1,-1.575498581E-1,1.020830631E0
4.937154320E-1,-2.401652932E-1,-1.681420326E0,9.596538544E-1
5.027982260E-1,6.768139601E-1,-2.307503939E0,4.820108414E-1
5.122846230E-1,1.095696688E0,-1.301043034E0,1.295892239E0
5.220343220E-1,2.057198286E-1,-3.541607380E0,-9.082379341E-1
5.319216710E-1,3.050777912E0,-2.513529539E0,-1.832075119E0
5.419393460E-1,3.239070177E0,-3.606018305E0,-3.152901173E0
5.518786830E-1,2.116148233E0,-5.403887749E0,-2.601911068E0
5.620578520E-1,2.707850218E0,-5.321545601E0,-1.296263218E0
5.719444360E-1,4.936402798E0,-4.900588989E0,3.015317917E-1
5.820107280E-1,4.175845146E0,-5.811687469E0,1.584992409E-1
5.919108740E-1,2.669636488E0,-5.127884865E0,2.273921967E-1
6.018719470E-1,2.559196234E0,-4.701030731E0,7.499160767E-1
6.118559840E-1,1.244996428E0,-3.166260719E0,1.736206055E0
6.218825020E-1,-3.552572131E-1,-1.901561260E0,2.885341644E0
6.319157610E-1,-7.510089874E-1,-1.917283535E0,2.998426437E0
6.418788910E-1,-6.329501271E-1,-1.933922291E0,1.424968719E0
6.521419560E-1,-3.225630820E-1,-1.828107357E0,-3.446793556E-1
6.620839880E-1,-2.081055045E-1,-1.860658407E0,-1.474075794E0
6.721480040E-1,-3.427517414E-1,-2.380096674E0,-2.190713882E0
6.820815120E-1,-4.513964355E-1,-2.526561499E0,-2.360342979E0
6.919702660E-1,-4.407654107E-1,-2.392660856E0,-2.233598232E0
7.020461430E-1,-7.642287016E-1,-2.016474962E0,-1.818303585E0
7.119275820E-1,-1.130223870E0,-1.489368677E0,-1.314846039E0
7.219383010E-1,-1.438753366E0,-1.050129652E0,-7.911577225E-1
7.318801610E-1,-1.883334637E0,-4.206147194E-1,1.680727005E-1
7.419125910E-1,-1.727601528E0,5.460376740E-1,2.040710449E-1
7.522923060E-1,-8.788412809E-1,1.449991226E0,-1.521346569E0
7.623361630E-1,-8.000494242E-1,1.469189167E0,-1.085629463E0
7.720840920E-1,6.118951440E-1,-2.862629890E-1,-1.096844673E0
7.820555560E-1,1.590408802E0,-1.127525330E0,-2.004319191E0
7.920402880E-1,1.434669733E0,-1.004918337E0,-1.706181049E0
8.019596540E-1,1.323025107E0,-9.327132702E-1,-1.215146542E0
8.118828370E-1,1.287159801E0,-1.231918097E0,-1.289436340E0
8.219239290E-1,1.098812222E0,-9.861440659E-1,-7.614479065E-1
8.318899750E-1,1.712697744E0,-1.858578682E0,2.799081802E-1
8.418779980E-1,1.397436380E0,-1.911768913E0,6.646947861E-1
8.518455090E-1,7.958149314E-1,-1.586236000E0,1.252666473E0
8.624327650E-1,4.382380247E-1,-1.639353395E0,1.859033585E0
8.721878930E-1,2.755912542E-1,-1.610688686E0,1.885201454E0
8.821184570E-1,1.861176491E-1,-1.503277421E0,1.609016418E0
8.920362390E-1,2.166612148E-1,-1.263818502E0,1.206698418E0
9.027151300E-1,1.748995781E-1,-9.314075708E-1,7.107648849E-1
9.124220750E-1,1.838818789E-1,-7.765992880E-1,9.488773346E-1
9.223155480E-1,1.257564068E0,-9.981513023E-1,1.306830406E0
9.320722840E-1,1.706220984E0,-1.010486960E0,1.245896339E0
9.420246520E-1,1.614518404E0,-6.651493311E-1,1.477450371E0
9.519298360E-1,1.631889820E0,-6.854743958E-1,2.076015472E0
9.622989280E-1,1.448067665E0,-8.416208029E-1,2.154448509E0
9.723724740E-1,1.032560349E0,-8.600661755E-1,2.307907104E0
9.821117470E-1,-5.714988708E-2,-1.001998425E0,2.558000565E0
9.920003840E-1,-1.179341078E0,-6.992015839E-1,3.659254074E0
1.001937202E0,-1.584515810E0,-3.862572908E-1,4.747936249E0
1.011879111E0,-1.896964788E0,-7.797659039E-1,4.887722969E0
1.021843566E0,-1.732936144E0,-5.307132006E-1,5.253427505E0
1.031892793E0,-1.445223808E0,-6.719732285E-2,5.646682739E0
1.041945407E0,-1.547954321E0,8.303296566E-2,5.987540245E0
1.051870214E0,-1.265265942E0,-4.364490509E-1,6.481369972E0
1.062061617E0,-1.218055248E0,-7.470332384E-1,5.991775513E0
1.071939819E0,-8.046414852E-1,-1.163638115E0,5.009976387E0
1.081955420E0,-3.226881027E-1,-1.562531471E0,3.782560349E0
1.091886720E0,3.376430273E-1,-1.675238967E0,2.437192917E0
1.101968870E0,9.710389972E-1,-1.709472418E0,1.036492348E0
1.111892445E0,1.332295775E0,-1.771310687E0,1.566247940E-1
1.121870233E0,1.265895844E0,-1.808378220E0,-3.061294556E-1
1.131853627E0,9.632750154E-1,-1.858324409E0,-3.619565964E-1
1.141933824E0,5.871488452E-1,-1.899704456E0,6.614589691E-2
1.151871422E0,2.196491361E-1,-1.929171920E0,6.299438477E-1
1.161891221E0,-1.912496090E-1,-1.999082088E0,1.097254753E0
1.172041621E0,-5.201953650E-1,-2.248253345E0,1.450099945E0
1.181954821E0,-5.580961704E-1,-2.694849253E0,1.612515450E0
1.191947421E0,-5.486729145E-1,-3.006690979E0,1.653204918E0
1.202027721E0,-6.880202293E-1,-3.109323025E0,1.166712761E0
1.212055371E0,-8.956781626E-1,-3.213186264E0,1.886119843E-1
1.221921196E0,-1.005027771E0,-3.566791773E0,-8.412694931E-1
1.232060108E0,-1.223153710E0,-3.814340591E0,-1.665704727E0
1.242027564E0,-1.420994520E0,-3.706121206E0,-1.821260929E0
1.252197792E0,-1.599539757E0,-3.250567913E0,-1.598902702E0
1.262095906E0,-1.758626223E0,-2.931729794E0,-1.731127739E0
1.271933963E0,-1.704954863E0,-2.816410065E0,-2.209569931E0
1.281903992E0,-1.579908848E0,-2.697864056E0,-2.600640297E0
1.291860006E0,-1.504958630E0,-2.556775331E0,-2.282720566E0
1.301863513E0,-1.425459623E0,-2.372493267E0,-1.526410103E0
1.312351767E0,-1.284044504E0,-2.348366261E0,-1.680333138E0
1.322227394E0,-8.304700851E-1,-2.928692341E0,-1.937174320E0
1.332017207E0,-1.138105273E0,-3.051160574E0,-1.339703083E0
1.342105614E0,-1.568666816E0,-2.991672277E0,-7.879300117E-1
1.351994317E0,-1.863990307E0,-2.889017105E0,-1.820898056E-1
1.361918669E0,-2.006257057E0,-2.874200583E0,-1.534729004E-1
1.371857345E0,-2.103841305E0,-2.840054274E0,-1.860828400E-1
1.381861183E0,-2.152139664E0,-2.732246637E0,-2.185249329E-2
1.391920602E0,-2.121582508E0,-2.504973412E0,5.610580444E-1
1.401984811E0,-1.962647557E0,-2.296898842E0,7.284832001E-1
1.411911916E0,-1.483069420E0,-2.293727160E0,7.973899841E-1
1.422183468E0,-9.817712307E-1,-2.367423058E0,7.078933716E-1
1.432497744E0,-5.908949375E-1,-2.321133137E0,4.813995361E-1
1.442198882E0,-3.964345455E-1,-2.247502089E0,3.185243607E-1
1.452003451E0,-4.289143085E-1,-1.950245142E0,1.044683456E-1
1.461932736E0,-3.746488094E-1,-1.632666826E0,1.495933533E-2
1.471914878E0,-3.820254803E-1,-1.225878716E0,-5.348014832E-2
1.482835949E0,-5.447604656E-1,-6.923573017E-1,1.225881577E-1
1.492416985E0,-6.612286568E-1,-2.337946892E-1,3.914031982E-1
1.502136003E0,-7.497186661E-1,4.690313339E-2,4.860525131E-1
1.511982012E0,-5.084023476E-1,-1.143348217E-1,6.101770401E-1
1.521913016E0,-1.213932037E-1,-4.898059368E-1,1.044591904E0
1.532314518E0,2.628693581E-1,-6.935989857E-1,1.085140228E0
1.542094269E0,5.043953657E-1,-7.195529938E-1,1.252726555E0
1.551934145E0,5.283541679E-1,-5.609252453E-1,1.611637115E0
1.561946583E0,3.003616333E-1,-3.799211979E-1,1.786401749E0
1.571893302E0,1.603603363E-3,-2.793133259E-1,1.906071663E0
1.582110161E0,-2.543702126E-1,-4.159471989E-1,2.126836777E0
1.591970591E0,-5.610265732E-1,-5.876898766E-1,2.254138947E0
1.601925306E0,-8.934311867E-1,-6.796705723E-1,2.387989998E0
1.611860163E0,-1.268735409E0,-6.155793667E-1,2.338991165E0
1.621906092E0,-1.526561975E0,-4.584639072E-1,2.228520393E0
1.631854556E0,-1.646417856E0,-3.483285904E-1,1.991361618E0
1.641869788E0,-1.580248117E0,-2.007491589E-1,1.838722229E0
1.652250404E0,-1.422960281E0,-1.052088737E-1,1.885862350E0
1.662081212E0,-1.104794502E0,-7.998180389E-2,2.143358231E0
1.671926616E0,-7.302360535E-1,-1.334795952E-1,2.431690216E0
1.681956818E0,-5.169956684E-1,-1.440653801E-1,2.599219322E0
1.691876919E0,-4.686660767E-1,-1.642670631E-1,2.644919395E0
1.701819970E0,-5.522179604E-1,-2.438669205E-1,2.268403053E0
1.711822495E0,-6.383553743E-1,-2.669658661E-1,1.787419319E0
1.721838758E0,-1.010116220E0,-3.973631859E-1,1.095968246E0
1.731882889E0,-1.577827454E0,-2.881388664E-1,5.930538177E-1
1.741926955E0,-2.048352718E0,-5.198941231E-1,8.595972061E-1
1.751893988E0,-2.079042673E0,-9.295506477E-1,1.659640312E0
1.762159504E0,-2.050912380E0,-1.086097002E0,2.403934479E0
1.771996262E0,-1.804312587E0,-1.447361231E0,3.586783409E0
1.781986141E0,-1.464225173E0,-2.085968018E0,4.829045296E0
1.791901581E0,-1.232297421E0,-2.680688858E0,5.418239594E0
1.801955301E0,-1.170255661E0,-3.035076141E0,5.383778572E0
1.811991661E0,-1.233765721E0,-3.198024273E0,4.914591789E0
1.821960841E0,-1.422980547E0,-3.189567327E0,4.415638924E0
1.831868431E0,-1.598628759E0,-3.158821344E0,3.617145538E0
1.841888226E0,-1.650214314E0,-3.196320772E0,2.685883522E0
1.851913123E0,-1.610260844E0,-3.194977999E0,1.116276741E0
1.861940572E0,-1.308360219E0,-2.960398674E0,7.051725388E-1
1.871964796E0,-9.900845289E-1,-2.791878939E0,4.886131287E-1
1.881968408E0,-5.168552399E-1,-2.890362024E0,1.189737320E-1
1.891950714E0,-3.672814369E-2,-3.183424711E0,-2.622632980E-1
1.901941367E0,3.311234117E-1,-3.387087345E0,-4.745359421E-1
1.911899694E0,5.209896564E-1,-3.558800697E0,-8.805961609E-1
1.921906357E0,5.238924026E-1,-3.588887453E0,-1.258730888E0
1.931856189E0,3.479382396E-1,-3.498642445E0,-1.628411770E0
1.941936105E0,5.000382662E-2,-3.188477039E0,-2.069115162E0
1.952250563E0,1.589494944E-2,-3.040311337E0,-1.990733624E0
1.962336292E0,6.138300896E-2,-2.885157585E0,-1.808172703E0
1.972115656E0,-1.250905991E-1,-2.545291901E0,-2.109745502E0
1.982071838E0,-4.491375685E-1,-2.223907948E0,-2.654228687E0
1.991947929E0,-5.965002775E-1,-2.195869923E0,-2.904592514E0
2.001949475E0,-6.232604980E-1,-2.260520458E0,-2.812142372E0
2.011880748E0,-7.219992876E-1,-2.214180231E0,-2.777494431E0
2.021975384E0,-8.496967554E-1,-2.076416492E0,-2.504644871E0
2.031877202E0,-9.242758751E-1,-2.032477379E0,-2.329676628E0
2.041980611E0,-9.627565145E-1,-2.006428242E0,-2.223852634E0
2.051959816E0,-9.253991842E-1,-1.939013004E0,-1.962253571E0
2.061974418E0,-9.093855619E-1,-1.711055517E0,-1.697825909E0
2.071950219E0,-8.873172998E-1,-1.415200472E0,-1.530330181E0
2.082097120E0,-8.345133066E-1,-1.240938902E0,-1.384283543E0
2.091958570E0,-7.922639847E-1,-1.163266659E0,-1.029540539E0
2.102113295E0,-8.117327690E-1,-1.021309376E0,-6.662282944E-1
2.111988158E0,-8.401201963E-1,-9.024946690E-1,-2.548570633E-1
2.122090589E0,-8.133955598E-1,-8.867657185E-1,9.093761444E-2
2.131985805E0,-7.708528638E-1,-9.398746490E-1,2.493247986E-1
2.141951413E0,-7.666504979E-1,-9.702217579E-1,2.835388184E-1
2.151922217E0,-8.066447973E-1,-9.223031998E-1,2.255172729E-1
2.161928619E0,-8.950633407E-1,-7.828869820E-1,1.768550873E-1
2.171926320E0,-9.789856672E-1,-6.367325783E-1,2.653551102E-1
2.181917170E0,-9.901906848E-1,-5.405328274E-1,5.040807724E-1
2.191919095E0,-9.955595136E-1,-5.026721954E-1,8.191690445E-1
2.201959558E0,-9.991844296E-1,-4.136099815E-1,1.349384308E0
2.211888289E0,-1.076570392E0,-3.392307758E-1,1.835009575E0
2.221916155E0,-1.206764102E0,-2.775166035E-1,2.189279556E0
2.232291088E0,-1.396267414E0,-2.138829231E-1,2.376074791E0
2.242104054E0,-1.482686043E0,-2.600185871E-1,2.612440109E0
2.252085037E0,-1.478959084E0,-3.261187077E-1,2.601243019E0
2.261982029E0,-1.481503963E0,-2.948935032E-1,2.290827751E0
2.271918025E0,-1.509577751E0,-1.279153824E-1,1.877244949E0
2.282013023E0,-1.545798421E0,-2.711248398E-2,1.541602135E0
2.291987022E0,-1.495325685E0,-1.603708267E-1,1.439007759E0
2.301990521E0,-1.437394738E0,-3.524389267E-1,1.384597778E0
2.311960771E0,-1.522326827E0,-5.503449440E-1,1.056855202E0
2.321985896E0,-1.554269552E0,-8.960709572E-1,5.675287247E-1
2.332509958E0,-1.687808752E0,-1.688011169E0,-1.842174530E-1
2.342245989E0,-1.684944630E0,-1.714262486E0,-1.712360382E-1
2.352058005E0,-1.874292135E0,-1.953975916E0,-4.717855453E-1
2.361975013E0,-2.051494837E0,-2.164682865E0,-7.576074600E-1
2.372015017E0,-2.334296465E0,-2.246742487E0,-9.338135719E-1
2.382231019E0,-3.266305685E0,-1.981160402E0,-5.372896194E-1
2.392084520E0,-3.621201038E0,-1.829826832E0,4.174137115E-2
2.401992270E0,-3.804237366E0,-1.718934298E0,6.176404953E-1
2.411911145E0,-3.691793203E0,-1.797233582E0,9.098424911E-1
2.421979083E0,-3.438360691E0,-1.820033550E0,1.049017906E0
2.431895052E0,-3.196122169E0,-1.654257536E0,9.792470932E-1
2.441863036E0,-2.963501215E0,-1.383997679E0,6.972122192E-1
2.452158028E0,-2.801893950E0,-1.037695646E0,4.580068588E-1
2.462515524E0,-2.655693769E0,-7.129201889E-1,2.558860779E-1
2.472170272E0,-2.487646103E0,-5.158944130E-1,9.592342377E-2
2.482021146E0,-2.441260099E0,-3.390421867E-1,2.126941681E-1
2.491917583E0,-2.433033705E0,-1.329255104E-1,5.289573669E-1
2.501910802E0,-2.424433470E0,-5.369901657E-2,1.051702499E0
2.511861911E0,-2.312005281E0,-1.901917458E-1,1.788517952E0
2.521817466E0,-2.069739103E0,-4.863657951E-1,2.747424126E0
2.531916243E0,-1.827711821E0,-8.209657669E-1,3.729951859E0
2.542641632E0,-1.727435350E0,-1.158888817E0,4.442849159E0
2.552247326E0,-1.824177027E0,-1.488073111E0,4.924405098E0
2.562539673E0,-2.165114164E0,-1.684454679E0,5.114370346E0
2.572319847E0,-2.633613586E0,-1.687097073E0,4.940256119E0
2.582389434E0,-3.111704350E0,-1.606021166E0,4.425118446E0
2.592098727E0,-3.433617592E0,-1.474004030E0,3.704034805E0
2.602038374E0,-3.413362503E0,-1.416694641E0,2.932094574E0
2.612063697E0,-3.079434872E0,-1.445656538E0,2.275864601E0
2.621960359E0,-2.500926495E0,-1.552675486E0,1.722680092E0
2.632085690E0,-1.824234009E0,-1.687435865E0,1.212882042E0
2.641982855E0,-1.211738944E0,-1.803745747E0,6.972427368E-1
2.651893438E0,-7.547993660E-1,-1.888236046E0,1.401042938E-1
2.661912729E0,-4.035402536E-1,-1.952231288E0,-5.241441727E-1
2.671949375E0,-8.421909809E-2,-1.973351002E0,-1.221974373E0
2.681976698E0,1.183149815E-1,-1.921407580E0,-1.620585918E0
2.691939359E0,2.157148123E-1,-1.830315471E0,-1.953840733E0
2.701891690E0,1.757061481E-1,-1.795253158E0,-2.107159615E0
2.711857355E0,7.681846619E-3,-1.822943807E0,-1.881729126E0
2.721853188E0,-8.185148239E-2,-1.900441885E0,-1.470715046E0
2.731845104E0,-6.654453278E-2,-2.106207371E0,-1.150912285E0
2.741902562E0,-5.915021896E-2,-2.337944508E0,-1.003521919E0
2.751897291E0,-1.237028837E-1,-2.398329258E0,-6.590480804E-1
2.762283156E0,-2.782033682E-1,-2.277115822E0,-4.045076370E-1
2.772033588E0,-3.420205116E-1,-2.257875919E0,-3.875913620E-1
2.782161304E0,-3.926708698E-1,-2.112754345E0,-3.417940140E-1
2.792029662E0,-3.861348629E-1,-1.768745303E0,-4.949865341E-1
2.802088841E0,-5.597233772E-2,-1.694475174E0,-7.547874451E-1
2.811989431E0,4.328097105E-1,-1.715107679E0,-1.104238033E0
2.822024726E0,8.124619722E-1,-1.654884934E0,-1.610939503E0
2.831920873E0,1.010237455E0,-1.610401154E0,-1.991607189E0
2.841983447E0,1.066132307E0,-1.597111940E0,-2.000154018E0
2.852279234E0,1.073176622E0,-1.640370131E0,-1.631128788E0
2.862229127E0,1.011625767E0,-1.688523531E0,-1.317672729E0
2.872105574E0,9.076839685E-1,-1.768504858E0,-7.616796494E-1
2.881988297E0,7.067627311E-1,-1.804025650E0,-5.000114441E-2
2.891924159E0,5.134492517E-1,-1.945955753E0,7.689170837E-1
2.902078090E0,2.086721659E-1,-1.977210283E0,1.397636414E0
2.911943555E0,2.311246991E-1,-2.414161444E0,2.280603409E0
2.921854788E0,-3.793621063E-2,-2.433476925E0,2.813041687E0
2.931826404E0,-2.361489534E-1,-2.638973236E0,2.990404129E0
2.941877212E0,-3.803884983E-1,-2.339424372E0,2.914513588E0
2.951857616E0,-4.991972446E-1,-1.953587890E0,2.628129959E0
2.962245818E0,-5.251815319E-1,-1.527026653E0,2.146448135E0
2.972523919E0,-4.886682034E-1,-1.029993773E0,1.548347473E0
2.982219970E0,-4.878044128E-1,-6.173534393E-1,1.218063354E0
2.992036495E0,-3.868551254E-1,-3.639869690E-1,1.118569374E0
3.001982758E0,-3.008508682E-1,-2.444400787E-1,1.189615250E0
3.011976389E0,-2.156529427E-1,-1.749351025E-1,1.368966103E0
3.022213205E0,-1.998536587E-1,-1.793403625E-1,1.490716934E0
3.032193113E0,-3.148411512E-1,-2.321102619E-1,1.507420540E0
3.042134067E0,-6.458101869E-1,-2.297701836E-1,1.505132675E0
3.051968044E0,-9.517278671E-1,-1.825969219E-1,1.446105957E0
3.061920032E0,-1.086296558E0,-1.615486145E-1,1.271592140E0
3.071855526E0,-9.974316955E-1,-1.209058762E-1,8.720951080E-1
3.081939273E0,-8.640527725E-1,-3.090834618E-2,3.538131714E-1
3.092180647E0,-8.381830454E-1,-5.328345299E-2,-7.493495941E-2
3.102014334E0,-9.160709381E-1,-1.033627987E-1,-4.430885315E-1
3.111959177E0,-9.530578256E-1,-7.904481888E-2,-9.913778305E-1
3.121894599E0,-6.313824654E-1,-1.367139816E-2,-1.486264229E0
3.131859310E0,-2.579331398E-1,-4.071998596E-2,-1.651799202E0
3.141813665E0,1.018217802E-1,-1.780462265E-1,-1.708491802E0
3.151932843E0,6.350623965E-1,-4.529297352E-1,-1.901968479E0
3.161924932E0,5.280913115E-1,-1.448454857E-1,-1.914744854E0
3.171858976E0,6.769967079E-2,8.814287186E-2,-2.081788540E0
3.181861498E0,-2.622342110E-2,-6.500830650E-1,-2.591372967E0
3.191832259E0,-9.626380205E-1,-1.382248402E-1,-3.085981369E0
3.201876140E0,-1.067765951E0,-5.545220375E-1,-4.194092274E0
3.212262080E0,-9.432477951E-1,-4.181809425E-1,-3.511125565E0
3.222169050E0,-7.578095198E-1,-7.134523392E-1,-3.282023907E0
3.231995035E0,-4.772285223E-1,-1.100102901E0,-3.243311882E0
3.241959028E0,-6.850982904E-1,-1.168106556E0,-2.371764183E0
3.251892024E0,-1.467958570E0,-1.143987179E0,-1.493493080E0
3.263284522E0,-2.358349800E0,-8.446087837E-1,-1.675060272E0
3.272580771E0,-2.616040230E0,-7.990007401E-1,-2.007001400E0
3.282241396E0,-2.152761936E0,-1.042012215E0,-1.671813011E0
3.292268208E0,-1.399481297E0,-1.044946432E0,-1.249109268E0
3.302021614E0,-8.380172253E-1,-9.817287922E-1,-9.994077682E-1
3.311977317E0,-2.727385759E-1,-9.990928173E-1,-8.517074585E-1
3.321959669E0,1.183954477E-1,-1.099149108E0,-3.995294571E-1
3.331887845E0,5.185332894E-1,-1.767396688E0,-3.111896515E-1
3.341874933E0,3.551186323E-1,-2.169567108E0,-5.318689346E-1
3.351881977E0,-1.895089149E-1,-1.566866636E0,3.637771606E-1
3.361883499E0,-6.890747547E-1,-6.694650650E-1,1.668277740E0
3.371854260E0,-1.487379789E0,1.237366199E-1,2.993000984E0
3.381858640E0,-2.039742947E0,-2.289459705E-1,3.006504059E0
3.392145330E0,-2.316075325E0,-1.597700119E-1,6.273546219E-1
3.402380675E0,-2.221143723E0,-1.427904367E0,-1.555261612E-1
3.412083348E0,-2.817598104E0,-2.717111349E0,8.395700455E-1
3.421999184E0,-3.365270138E0,-3.196156025E0,2.583781242E0
3.432060102E0,-3.320453644E0,-3.083085537E0,3.627144814E0
3.442999061E0,-4.292708337E-1,-1.741876602E0,-2.915432930E0
3.452443041E0,-8.854418397E-1,-1.852365971E0,-2.845921516E0
3.462132531E0,-2.677378058E-1,-2.222270012E0,-4.912117958E0
3.472089776E0,-1.342774510E0,1.033635139E0,-1.307743549E0
3.482048398E0,-3.257806778E0,2.195760727E0,2.684200287E0
3.491968709E0,-4.994964600E0,1.827023029E0,7.630046844E0
3.501999365E0,-3.515924454E0,8.297061920E-1,4.757009506E0
3.511921193E0,-2.048229933E0,1.172715664E0,1.662830353E0
3.521899107E0,-1.817470670E0,1.114676952E0,3.243545532E0
3.532236564E0,-1.196967006E0,4.472875595E-1,6.275216103E0
3.542053792E0,-6.405813694E-1,-1.493573189E-1,7.406943321E0
3.552002906E0,-8.399830461E-1,-4.220161438E-1,7.515148163E0
3.561963963E0,-1.094503880E0,-7.214267254E-1,7.818777084E0
3.571872992E0,-9.959424734E-1,-4.053471088E-1,7.649887085E0
3.581817006E0,-2.218483686E-1,1.666941643E-1,7.803997040E0
3.591915013E0,7.455179691E-1,-5.376353264E-1,6.655311584E0
3.602182017E0,1.148371696E-1,2.194523811E-1,5.728800774E0
3.612083519E0,-2.665082216E-1,3.367128372E-1,4.806332588E0
3.622013270E0,-7.394253612E-1,4.854636192E-1,3.571585655E0
3.631886145E0,-9.239543676E-1,4.020814896E-1,2.581241608E0
3.641914083E0,-9.733280540E-1,-1.368868351E-1,1.996534348E0
3.651882052E0,-3.345826864E-1,-5.001342297E-1,1.351323128E0
3.662058536E0,2.170140743E-1,-7.901451588E-1,6.818180084E-1
3.672192778E0,7.009677887E-1,-1.025568962E0,-4.629983902E-1
3.682065899E0,2.022626162E0,-1.152218342E0,-2.203610420E0
3.691922960E0,7.712416649E-1,-5.973629951E-1,-2.928231239E0
3.701886990E0,6.603894234E-1,-1.030891418E0,-4.100636482E0
3.711869005E0,8.472452164E-1,-1.485694885E0,-4.455398083E0
3.721865013E0,7.587854862E-1,-2.188579082E0,-4.115532398E0
3.731827517E0,2.351546288E-2,-2.685583115E0,-3.309395790E0
3.741843769E0,-6.823234558E-1,-3.159351587E0,-2.699767113E0
3.751806395E0,-9.619100094E-1,-3.466256380E0,-2.442349434E0
3.761940208E0,-5.371041298E-1,-3.369736671E0,-2.147097588E0
3.771895114E0,-8.695421219E-1,-3.414859772E0,-2.287018776E0
3.781867567E0,-7.264170647E-1,-3.504916906E0,-2.781588078E0
3.792260794E0,-1.266502857E0,-3.136629343E0,-3.617004871E0
3.802123907E0,-1.432012796E0,-2.826812506E0,-4.419501305E0
3.811958964E0,-1.222759724E0,-2.428621769E0,-3.914167881E0
3.821866992E0,-3.637282848E-1,-2.618041039E0,-3.354578972E0
3.831828006E0,1.109807253E0,-2.821960688E0,-3.084446907E0
3.841942013E0,1.959192991E0,-2.840987444E0,-2.557971954E0
3.852412017E0,1.824296713E0,-2.627151251E0,-2.099162579E0
3.862425519E0,1.248969555E0,-2.264456272E0,-2.066583633E0
3.872237270E0,9.270315170E-1,-2.054489613E0,-1.924596310E0
3.882176645E0,1.101881504E0,-1.679995537E0,-1.835952282E0
3.892049333E0,1.483456135E0,-1.442442894E0,-1.549666882E0
3.901986677E0,1.503892422E0,-1.473976612E0,-7.447981834E-1
3.912315349E0,1.630110741E0,-1.590128183E0,5.892658234E-1
3.922135185E0,1.885589123E0,-1.552185059E0,1.893970490E0
3.931983103E0,2.132535934E0,-1.638435841E0,2.893501282E0
3.941945062E0,2.512425900E0,-1.714771628E0,3.538020134E0
3.951875041E0,2.852836132E0,-1.578320742E0,4.151097298E0
3.961890031E0,3.046172142E0,-1.433390379E0,4.771059036E0
3.971847026E0,3.052654743E0,-1.308442593E0,5.224578857E0
3.981887023E0,3.076183796E0,-1.308696985E0,5.736000061E0
3.991867022E0,2.847173214E0,-1.242615700E0,5.832208633E0
4.002049021E0,1.507109165E0,-6.990034580E-1,4.539443970E0
4.011930021E0,1.087862968E0,-2.446236610E-1,3.543016434E0
4.021967021E0,8.906593323E-1,6.667661667E-2,2.684792519E0
4.032367021E0,7.860052586E-1,2.716553211E-1,2.131613731E0
4.042124021E0,7.346851826E-1,5.936663151E-1,1.764783859E0
4.051955021E0,7.806446552E-1,7.476298809E-1,1.372286797E0
4.061965521E0,6.828656197E-1,8.034949303E-1,1.112038612E0
4.071940271E0,3.310651779E-1,1.036102533E0,8.641929626E-1
4.081923646E0,-8.461380005E-2,1.156316042E0,8.573760986E-1
4.091844333E0,-6.578569412E-1,1.544552565E0,9.748649597E-1
4.101932677E0,-9.666895866E-1,1.581465960E0,1.080990791E0
4.111870349E0,-1.043138266E0,1.364470482E0,1.160227776E0
4.121847185E0,-1.223100662E0,1.068947077E0,1.205084801E0
4.131821103E0,-1.522050619E0,7.906434536E-1,1.035860062E0
4.141868562E0,-1.954858661E0,4.282279015E-1,7.099046707E-1
4.152586791E0,-2.381675720E0,1.263656616E-1,4.302244186E-1
4.162235906E0,-2.642740726E0,-1.655776501E-1,4.455394745E-1
4.172006963E0,-2.930639267E0,-3.080334663E-1,3.246545792E-1
4.182268492E0,-3.100205183E0,-4.642186165E-1,-2.960023880E-1
4.192062756E0,-3.062431335E0,-5.054209232E-1,-1.197575569E0
4.201976388E0,-2.733886242E0,-9.087290764E-1,-2.288166523E0
4.211930204E0,-2.434666157E0,-1.527934194E0,-3.295691013E0
4.221892612E0,-2.525409222E0,-1.807169795E0,-3.981524944E0
4.231832816E0,-2.981065989E0,-1.712995052E0,-4.479929924E0
4.242555418E0,-3.427429199E0,-1.582563877E0,-4.562471390E0
4.252400219E0,-3.774589062E0,-1.594535589E0,-4.447549820E0
4.262145120E0,-3.465658188E0,-1.896136761E0,-4.358027935E0
4.272003570E0,-2.977369547E0,-1.918246508E0,-3.887467861E0
4.281951295E0,-2.639454365E0,-1.472332001E0,-2.896248817E0
4.291944658E0,-1.896979332E0,-1.522390604E0,-1.979184151E0
4.301994339E0,-1.524050117E0,-1.360800266E0,-1.720458508E0
4.311907180E0,-1.418580294E0,-1.508578420E0,-1.979871273E0
4.322000100E0,-1.759656668E0,-1.805398107E0,-2.645186424E0
4.331905060E0,-2.592245817E0,-1.950615525E0,-3.363187313E0
4.341973040E0,-3.425997496E0,-1.509075403E0,-3.718254089E0
4.351962530E0,-4.615037918E0,-6.141667366E-1,-3.549520493E0
4.361946775E0,-5.765075684E0,4.306001663E-1,-2.770515442E0
4.372311898E0,-5.761305332E0,6.610343456E-1,-1.119906425E0
4.382174459E0,-4.464844704E0,3.417394161E-1,1.463151932E0
4.392015240E0,-3.238550663E0,1.465442181E-1,3.394336700E0
4.401955130E0,-2.628688335E0,9.663105011E-2,4.619957924E0
4.411932075E0,-2.406862736E0,-2.010726929E-2,5.021952629E0
4.421943048E0,-2.558801174E0,-5.652029514E-1,4.741734505E0
4.431880034E0,-2.810231686E0,-1.173233271E0,4.472545624E0
4.441924527E0,-3.052725792E0,-1.255018711E0,4.924406052E0
4.451877774E0,-2.675595760E0,-1.391937733E0,6.361001968E0
4.461875397E0,-1.869046807E0,-1.837023973E0,8.090648651E0
4.471850209E0,-1.408821106E0,-1.741180658E0,9.045372963E0
4.481852615E0,-1.894054174E0,-1.482673168E0,7.650666237E0
4.491827318E0,-2.339434385E0,-1.040163994E0,7.534952164E0
4.501925169E0,-1.367151141E0,-7.159013748E-1,7.039516449E0
4.511945595E0,-9.871126413E-1,-4.860675335E-1,6.186595917E0
4.521928808E0,-1.098833561E0,-6.682989597E-1,5.336214066E0
4.531876414E0,-8.504913449E-1,-5.775215626E-1,5.263696671E0
4.541830717E0,-7.401669025E-1,-5.432989597E-1,5.339309692E0
4.551860369E0,-9.019824862E-1,-4.948067665E-1,5.285901070E0
4.561940195E0,-8.550650477E-1,-7.906718254E-1,4.767973900E0
4.571916608E0,-5.468173027E-1,-1.498790503E0,3.846953392E0
4.582193814E0,-3.362233639E-1,-2.054271698E0,2.645250320E0
4.592021417E0,-2.997497320E-1,-1.971760035E0,1.466291428E0
4.602188719E0,-2.917619944E-1,-1.633315802E0,1.932058334E-1
4.612120870E0,-5.192422867E-2,-1.406776428E0,-1.234591961E0
4.622182945E0,2.241611481E-1,-1.459447503E0,-2.362029076E0
4.632023483E0,5.124694109E-1,-1.566673517E0,-2.903520107E0
4.641965752E0,5.848557949E-1,-1.657577157E0,-2.825011253E0
4.652445386E0,3.214287758E-1,-1.690885067E0,-2.987418175E0
4.662282703E0,7.029771805E-3,-1.744099617E0,-2.828458786E0
4.672047862E0,-2.527436614E-1,-1.906289577E0,-2.826585770E0
4.681957941E0,-3.298220634E-1,-2.129590988E0,-3.245369434E0
4.691873981E0,-3.322674632E-1,-2.503298283E0,-2.899155140E0
4.701807001E0,-4.263781309E-1,-2.701626301E0,-2.199690342E0
4.711874511E0,-2.768114507E-1,-3.052908421E0,-1.639849663E0
4.722006266E0,-1.927459389E-1,-3.119781256E0,-1.305160522E0
4.731919643E0,-3.029606342E-1,-2.842118502E0,-1.073246956E0
4.741882332E0,-1.303188652E-1,-3.039378405E0,-5.686960220E-1
4.752079176E0,4.816102982E-2,-3.081706762E0,-4.528808594E-2
4.761993098E0,1.085269153E-1,-2.875298262E0,8.789367676E-1
4.771896559E0,6.720038652E-1,-2.824129820E0,1.340810776E0
4.781888790E0,1.050949216E0,-2.908694983E0,1.215300560E0
4.792340405E0,1.140033603E0,-2.857940435E0,7.322359085E-1
4.802129713E0,9.689359069E-1,-2.325675011E0,-2.223825455E-1
4.812000867E0,5.981338024E-1,-2.036962032E0,-1.181538105E0
4.821959444E0,4.157753587E-1,-2.207315445E0,-1.825015545E0
4.832000732E0,2.135610580E-1,-2.169428110E0,-1.554560184E0
4.842122376E0,-2.269289270E-2,-2.178205729E0,-9.014496803E-1
4.852010698E0,-1.098082811E-1,-1.909193993E0,-5.701560974E-1
4.862676859E0,-7.611652613E-1,-1.138389826E0,-1.375300407E0
4.872256440E0,-7.211068869E-1,-1.598212004E0,-2.995249748E0
4.882115230E0,-2.022274137E-1,-1.843682528E0,-2.967377186E0
4.891945625E0,2.979310155E-1,-1.303768158E0,-1.734828949E0
4.901916323E0,1.125047684E0,-1.285396576E0,-5.563616753E-1
4.912802172E0,1.386987090E0,-1.390889406E0,6.959218979E-1
4.922336596E0,1.179933548E0,-1.697680473E0,1.242029190E0
4.932095308E0,1.083464384E0,-1.760347843E0,2.365795135E0
4.941932664E0,1.836951971E-1,-8.040602207E-1,2.182600021E0
4.951874342E0,-5.873012543E-1,-6.837122440E-1,2.016672134E0
4.962070181E0,-8.675484061E-1,-4.616699219E-1,1.106660843E0
4.971935601E0,-1.279053926E0,-8.941316605E-2,3.058118820E-1
4.981853311E0,-6.786974072E-1,-6.940591335E-1,2.800903320E-1
4.992008666E0,-3.515362740E-1,-6.720097065E-1,-5.445194244E-2
5.002357343E0,-4.473344684E-1,-4.647011757E-1,7.320404053E-3
5.012079182E0,-1.580149829E-1,-8.089962006E-1,6.937675476E-1
5.022027101E0,1.585172266E-1,-8.933484554E-1,1.717013359E0
5.031931561E0,3.334558606E-1,-7.089509964E-1,1.693655014E0
5.041860791E0,9.960121661E-2,-4.313640594E-1,5.847253799E-1
5.051822906E0,3.552362323E-1,-1.137643814E0,-9.383831024E-1
5.061976963E0,8.404424042E-2,-1.231320143E0,-2.918838501E0
5.072339492E0,1.731897444E-1,-1.655839562E0,-2.463829994E0
5.082196256E0,1.641033590E-1,-1.960024595E0,-2.216382027E0
5.092032638E0,-3.569534123E-1,-1.546587110E0,-2.628594875E0
5.102065329E0,-8.084396124E-1,-1.044803143E0,-2.154876709E0
5.111964175E0,-6.732939482E-1,-8.997118473E-1,-9.941310883E-1
5.122137598E0,-4.788057506E-1,-5.886080265E-1,-1.327462196E0
5.131969309E0,-6.793075204E-1,-1.758813858E-1,-2.407752514E0
5.141996165E0,-7.590187788E-1,-6.202766895E-1,-2.775038719E0
5.151933593E0,-7.918413281E-1,-1.015904427E0,-3.299649715E0
5.161923807E0,-1.090250850E0,-8.890397549E-1,-3.746316910E0
5.171862414E0,-1.648022652E0,-5.121703148E-1,-3.496253014E0
5.181907217E0,-1.440074325E0,-3.244645596E-1,-3.360657692E0
5.191888619E0,-1.256839931E-1,-4.130053520E-2,-1.329136848E0
5.202012820E0,1.959983110E-1,-1.626431942E-1,-8.454380035E-1
5.211933420E0,2.248780578E-1,-2.467205524E-1,1.852741241E-1
5.221929220E0,1.907628775E-1,-3.123919964E-1,8.526468277E-1
5.231889120E0,-2.908136249E-1,-4.498367310E-1,6.233129501E-1
5.241893570E0,-1.112038732E0,-4.688050747E-1,4.692983627E-1
5.251864795E0,-1.983711362E0,-1.285984516E-1,3.009538651E-1
5.261921408E0,-2.472051144E0,-8.278870583E-2,6.262683868E-2
5.271926714E0,-2.441385269E0,-5.264019966E-2,2.629470825E-1
5.282172367E0,-2.338244915E0,2.175519466E-1,2.613554001E-1
5.292135694E0,-2.231470346E0,4.726920128E-1,5.731153488E-1
5.302020857E0,-2.235549450E0,4.057033062E-1,8.075141907E-1
5.312108939E0,-2.507811785E0,1.910281181E-1,8.982648849E-1
5.322025980E0,-2.838973045E0,2.321352959E-1,5.425834656E-1
5.331928000E0,-3.257972240E0,3.225641251E-1,1.469803810E0
5.341952010E0,-3.746013880E0,7.146420479E-1,2.464305878E0
5.351880515E0,-4.128457069E0,6.916806698E-1,3.005664825E0
5.361890768E0,-4.272810936E0,2.810087204E-1,3.235778809E0
5.371878894E0,-4.217132568E0,-9.345388412E-2,3.176840782E0
5.381875957E0,-4.074428558E0,-6.024463177E-1,3.397305489E0
5.391848989E0,-4.024855137E0,-8.687237501E-1,4.258406639E0
5.401876005E0,-3.992547989E0,-7.776786089E-1,5.848557472E0
5.412126013E0,-3.763642311E0,-5.976779461E-1,7.193979263E0
5.422011517E0,-3.505236149E0,-6.986123323E-1,7.313108444E0
5.431920769E0,-3.106454611E0,-9.972585440E-1,6.419116020E0
5.441912895E0,-2.956755638E0,-1.193693876E0,4.931916237E0
5.451907958E0,-3.093445301E0,-1.125655055E0,3.332350731E0
5.462231489E0,-3.549115181E0,-6.658787727E-1,1.959923744E0
5.472033755E0,-4.091075897E0,-9.833335876E-2,9.249544144E-1
5.481988888E0,-4.127737045E0,2.014398575E-2,2.826499939E-1
5.491919454E0,-3.682911873E0,-1.405451298E-1,4.059829712E-1
5.501918237E0,-2.905455351E0,-5.180952549E-1,1.100627899E0
5.511894129E0,-2.093336105E0,-8.904087543E-1,1.950287819E0
5.521898075E0,-1.184057951E0,-1.145357132E0,3.078928947E0
5.531921548E0,-3.345263600E-1,-1.539925456E0,3.836275101E0
5.541855284E0,2.722745538E-1,-2.015843391E0,3.546754837E0
5.552194152E0,4.170750380E-1,-2.058208466E0,3.433857918E0
5.562182586E0,1.000896990E-1,-1.880804181E0,2.361138344E0
5.572041303E0,-2.647482455E-1,-1.674347997E0,9.018440247E-1
5.581973162E0,-7.619829178E-1,-1.319982529E0,-4.251060486E-1
5.591983091E0,-1.232954383E0,-1.077074289E0,-1.490147114E0
5.602018056E0,-1.835772276E0,-6.556143761E-1,-1.753588676E0
5.611939538E0,-2.530774593E0,-3.039932251E-1,-9.573421478E-1
5.622103279E0,-2.729982853E0,-9.423792362E-1,5.368413925E-1
5.631979150E0,-2.199320316E0,-1.806690812E0,1.899897575E0
5.641985085E0,-1.890626431E0,-2.415650845E0,2.569607735E0
5.652106553E0,-1.913152456E0,-2.529865265E0,2.376955032E0
5.662070287E0,-1.981089115E0,-2.497406244E0,1.758861542E0
5.672546654E0,-1.984573483E0,-2.362520456E0,9.648694992E-1
5.682773337E0,-1.817400098E0,-2.316093683E0,-8.517932892E-2
5.692294179E0,-1.545835495E0,-2.384578943E0,-1.165863991E0
5.702082100E0,-1.215993643E0,-2.292512894E0,-2.071281910E0
5.711960060E0,-8.418968320E-1,-2.121204376E0,-2.518874645E0
5.721909040E0,-4.007111788E-1,-2.062588692E0,-2.783157825E0
5.731873530E0,2.329289913E-2,-2.042718410E0,-2.822351933E0
5.741875775E0,2.512363791E-1,-1.869030118E0,-2.560670376E0
5.751850398E0,2.535000741E-1,-1.643710256E0,-1.777613640E0
5.761954709E0,9.578531981E-2,-1.514681816E0,-8.707456589E-1
5.771929365E0,5.753576756E-3,-1.572293520E0,6.363019943E-1
5.781900193E0,1.063574553E-1,-1.755351543E0,2.298036575E0
5.792114607E0,5.248733163E-1,-2.211564302E0,3.195207596E0
5.802008314E0,9.584054351E-1,-2.621153831E0,2.998138428E0
5.811974667E0,1.341073394E0,-2.545854330E0,2.122239113E0
5.821928344E0,1.766251802E0,-2.537633896E0,1.095623016E0
5.831879182E0,2.050629377E0,-2.553692341E0,-7.064437866E-2
5.841824601E0,1.945574045E0,-2.287943840E0,-1.185684204E0
5.851920811E0,1.411278248E0,-1.931988120E0,-1.962132454E0
5.861977416E0,7.434728146E-1,-1.796134949E0,-2.581100464E0
5.871903218E0,-1.458975673E-1,-1.746963739E0,-3.208425999E0
5.881946119E0,-9.373587370E-1,-1.555612087E0,-3.523513317E0
5.891904070E0,-1.567289472E0,-1.276717186E0,-3.586343765E0
5.901904045E0,-1.936235905E0,-1.055075884E0,-3.766401768E0
5.911947033E0,-2.006693840E0,-9.361653328E-1,-3.882078648E0
5.922004527E0,-1.787127256E0,-9.072453976E-1,-3.820892334E0
5.932327274E0,-1.538566232E0,-9.756889343E-1,-3.400121689E0
5.942116647E0,-1.352777123E0,-1.010173798E0,-2.569845200E0
5.952304834E0,-1.549626350E0,-1.220064878E0,-1.538192749E0
5.962145927E0,-1.850582361E0,-1.298814535E0,-4.571237564E-1
5.971973974E0,-1.935135961E0,-1.354433298E0,9.059820175E-1
5.981954497E0,-1.957009435E0,-1.562025070E0,1.773954391E0
5.991950259E0,-1.820676565E0,-1.494896412E0,1.862251282E0
6.002213640E0,-1.736219525E0,-1.389779806E0,1.451112747E0
6.012053330E0,-1.584268689E0,-1.132158041E0,8.731374741E-1
6.022063175E0,-1.299922228E0,-5.681982040E-1,3.052721024E-1
6.031967098E0,-9.465696812E-1,-1.962835789E-1,9.719848633E-2
6.041982059E0,-3.398687840E-1,5.277061462E-2,-1.135759354E-1
6.052198040E0,6.913721561E-2,4.251658916E-1,-1.418666840E-1
6.062223030E0,3.873124123E-1,4.710435867E-1,-2.138652802E-1
6.072065525E0,6.169630289E-1,2.845644951E-1,-2.896203995E-1
6.081986273E0,7.502991557E-1,2.435469627E-2,-6.105632782E-1
6.091966647E0,7.809551954E-1,-1.964590549E-1,-1.179603577E0
6.101952834E0,6.929625869E-1,-2.645735741E-1,-1.746178627E0
6.111902927E0,5.225234032E-1,-1.983358860E-1,-2.335806370E0
6.121891474E0,4.434843659E-1,-1.613290310E-1,-2.661118507E0
6.131878747E0,3.682897091E-1,-1.373705864E-1,-2.755033016E0
6.141872884E0,2.440346479E-1,-4.424619675E-2,-2.314061642E0
6.151883952E0,-8.043599129E-2,5.100011826E-2,-2.289396763E0
6.161899986E0,-1.805830002E-1,-5.843353271E-2,-2.125348568E0
6.171891503E0,-2.573045492E-1,-2.642138004E-1,-2.390878677E0
6.181880262E0,-3.168717623E-1,-2.814242840E-1,-2.281603336E0
6.191849141E0,-3.264632225E-1,-3.382503986E-1,-1.900869846E0
6.201857081E0,-5.296210051E-1,-3.765501976E-1,-1.568875790E0
6.211833051E0,-7.019919157E-1,-3.741407394E-1,-1.182310581E0
6.221863536E0,-7.744348049E-1,-4.114534855E-1,-8.598604202E-1
6.231842778E0,-7.922728062E-1,-4.888906479E-1,-6.985130310E-1
6.241832899E0,-8.332481384E-1,-4.862351418E-1,-7.135515213E-1
6.251827460E0,-8.419594765E-1,-4.257206917E-1,-7.251939774E-1
6.262057740E0,-7.505345345E-1,-3.614900112E-1,-6.220006943E-1
6.271927880E0,-6.138969660E-1,-3.627312183E-1,-4.579687119E-1
6.281854450E0,-5.767276287E-1,-4.432489872E-1,-1.945905685E-1
6.291837235E0,-7.672595978E-1,-5.319581032E-1,2.286577225E-1
6.301803128E0,-1.052109122E0,-6.557083130E-1,8.399171829E-1
6.311813574E0,-1.369623303E0,-7.427227497E-1,1.430070877E0
6.321829797E0,-1.636320949E0,-7.491586208E-1,1.816159248E0
6.331816409E0,-1.772393942E0,-6.665370464E-1,1.991545677E0
6.341831715E0,-1.782266855E0,-5.764513016E-1,1.983879089E0
6.352458368E0,-1.739894509E0,-4.252779484E-1,1.994843483E0
6.362122694E0,-1.723948836E0,-2.893457413E-1,1.961724281E0
6.371976857E0,-1.800805449E0,-2.568087578E-1,1.968722343E0
6.381951939E0,-1.846316576E0,-2.445466518E-1,2.183176041E0
6.391900980E0,-1.837845325E0,-3.107955456E-1,2.464105606E0
6.401884500E0,-1.767095327E0,-5.137290955E-1,2.671066284E0
6.411872260E0,-1.751941442E0,-6.292920113E-1,2.847984314E0
6.421826140E0,-1.857962608E0,-7.629861832E-1,2.924812317E0
6.431835080E0,-1.901026607E0,-8.347524405E-1,3.043297768E0
6.441876550E0,-1.928098083E0,-1.011740088E0,2.826503754E0
6.451857285E0,-1.933179379E0,-1.173509479E0,2.623950958E0
6.461869153E0,-2.105643749E0,-1.186671019E0,2.183247566E0
6.472181087E0,-2.281991482E0,-1.143146992E0,1.523080826E0
6.482044554E0,-2.456731319E0,-1.049196720E0,8.539571762E-1
6.491904287E0,-2.563484669E0,-9.225143194E-1,2.494335175E-1
6.501877654E0,-2.482528687E0,-9.641296864E-1,-1.365423203E-1
6.511851837E0,-2.237560272E0,-9.679737091E-1,-4.091320038E-1
6.522108429E0,-1.999189258E0,-9.509401321E-1,-5.910501480E-1
6.531952725E0,-1.735911727E0,-8.759450912E-1,-5.943632126E-1
6.541894373E0,-1.444410086E0,-9.300169945E-1,-5.717515945E-1
6.551930697E0,-1.151106954E0,-9.716125727E-1,-8.601341248E-1
6.561917859E0,-9.590815306E-1,-9.077132940E-1,-9.939279556E-1
6.571957940E0,-1.008425236E0,-1.000519037E0,-1.039696693E0
6.581868480E0,-1.152894378E0,-1.025476694E0,-1.156870842E0
6.592122750E0,-1.378819466E0,-1.079446793E0,-1.462068558E0
6.602001885E0,-1.377507925E0,-1.074445486E0,-1.897040367E0
6.611898453E0,-1.229769468E0,-1.122594357E0,-2.325596333E0
6.621887237E0,-1.208889008E0,-1.157280207E0,-2.388447762E0
6.631860129E0,-1.210513473E0,-9.494449496E-1,-2.653945446E0
6.641862075E0,-1.312257051E0,-5.060086250E-1,-3.068688869E0
6.651830548E0,-1.736782193E0,-3.682562113E-1,-2.233989239E0
6.661853784E0,-1.715475917E0,-9.077090621E-1,-1.292934418E0
6.671850902E0,-1.415242314E0,-1.115372777E0,-4.930305481E-1
6.682055461E0,-2.119908810E0,-1.533419967E0,-8.967885971E-1
6.691912241E0,-2.194525719E0,-1.935060263E0,-1.357397079E0
6.701886631E0,-2.449304819E0,-1.699542999E0,-1.594921112E0
6.711912326E0,-2.592837334E0,-1.158780217E0,-1.375483513E0
6.721905673E0,-2.809392452E0,-4.904387593E-1,-1.253750801E0
6.732152847E0,-3.172984362E0,1.739660501E-1,-1.241689682E0
6.742012434E0,-3.584215641E0,7.998204231E-1,-8.255958557E-1
6.752775227E0,-4.049706936E0,1.159565568E0,-3.092012405E-1
6.762346124E0,-3.797120571E0,3.819878101E-1,-1.613452911E0
6.772058572E0,-3.249520063E0,-4.660617113E-1,-3.757836342E0
6.782034796E0,-2.891183138E0,-6.585310698E-1,-4.896992207E0
6.791899408E0,-2.544550419E0,-2.783235312E-1,-4.105159283E0
6.801891714E0,-2.454432487E0,4.049336910E-1,-2.789764404E0
6.812026867E0,-2.749645233E0,1.156295776E0,-1.655442715E0
6.821947944E0,-2.798009396E0,1.670124531E0,-1.053361893E0
6.831872482E0,-2.694404364E0,1.996032476E0,-7.261409760E-1
6.841824251E0,-2.522570133E0,2.093555450E0,-5.292530060E-1
6.851797636E0,-2.242928028E0,1.935128212E0,-3.949947357E-1
6.861878828E0,-1.894600391E0,1.513221979E0,-1.744022369E-1
6.871827924E0,-1.709479570E0,1.348070383E0,5.043601990E-2
6.881882972E0,-1.732155561E0,1.456447124E0,5.048847198E-2
6.891934996E0,-1.802989841E0,1.571965933E0,-5.233192444E-2
6.901951008E0,-1.863669515E0,1.721858978E0,4.743576050E-3
6.913245014E0,-1.819373727E0,1.575328588E0,-1.629409790E-1
6.922579517E0,-1.697106361E0,1.366511583E0,-1.214618683E-1
6.932197769E0,-1.693878531E0,1.226535559E0,1.545906067E-2
6.942033395E0,-1.670884848E0,1.047163725E0,1.912336349E-1
6.951997208E0,-1.726098776E0,8.836364746E-1,6.077642441E-1
6.962199114E0,-1.691649556E0,8.175027370E-1,1.003434181E0
6.972022067E0,-1.542048454E0,6.410350800E-1,1.409048080E0
6.981947044E0,-1.280178189E0,5.475778580E-1,1.787898064E0
6.991909532E0,-9.821165800E-1,4.739775658E-1,2.255701065E0
7.001928276E0,-7.314568758E-1,3.967418671E-1,2.837094307E0
7.013323648E0,-5.972597599E-1,5.285296440E-1,2.949052811E0
7.022611834E0,-4.982445240E-1,6.012163162E-1,3.108377457E0
7.032218427E0,-3.857170343E-1,5.856540203E-1,3.597990990E0
7.042078224E0,-4.538280964E-1,6.479740143E-1,4.063669205E0
7.051944122E0,-4.030911922E-1,8.184099197E-1,4.486968994E0
7.061967571E0,-1.081353426E-1,7.839169502E-1,4.795045853E0
7.071875796E0,3.280855417E-1,5.567247868E-1,4.710800171E0
7.081957908E0,7.124652863E-1,1.107125282E-1,4.416297913E0
7.091883964E0,7.954913974E-1,-4.426636696E-1,3.669035912E0
7.101938492E0,3.571501672E-1,-7.745888233E-1,3.135580063E0
7.112088256E0,-4.870472550E-1,-9.452399015E-1,2.763609886E0
7.122042638E0,-1.253996134E0,-1.212239385E0,2.250349998E0
7.132112829E0,-1.735586047E0,-1.577000380E0,1.636939049E0
7.141972425E0,-1.923344731E0,-1.937449217E0,8.931112289E-1
7.152156223E0,-1.746750355E0,-2.163786650E0,9.758663177E-2
7.162082122E0,-1.352347612E0,-2.371629953E0,-7.159729004E-1
7.171936571E0,-7.769209743E-1,-2.406055927E0,-1.321976662E0
7.181967796E0,-3.520660996E-1,-2.086979389E0,-2.099059582E0
7.191912408E0,6.092914343E-1,-2.186065197E0,-1.941794395E0
7.201915714E0,1.262768269E0,-2.204576492E0,-2.133992672E0
7.211936867E0,1.406657100E0,-1.995101929E0,-2.297805786E0
7.221912444E0,7.617856264E-1,-1.515651941E0,-2.975161076E0
7.231873232E0,3.151062727E-1,-1.537032604E0,-2.969774246E0
7.241899126E0,-2.420721650E-1,-1.555866122E0,-2.746004105E0
7.252120573E0,-7.315269113E-1,-1.538906455E0,-2.411054134E0
7.262364297E0,-1.196523905E0,-1.522493720E0,-2.096567631E0
7.272142659E0,-1.488931179E0,-1.624353409E0,-1.808280468E0
7.282032840E0,-1.700652361E0,-1.825828075E0,-1.611251354E0
7.291926930E0,-1.911551476E0,-1.898623347E0,-1.659066200E0
7.302149475E0,-2.550846815E0,-1.368241191E0,-1.928451538E0
7.311990748E0,-2.418438435E0,-1.674758196E0,-1.542432785E0
7.322050884E0,-2.323807240E0,-1.858114600E0,-1.468344688E0
7.331946452E0,-2.398144960E0,-1.638187170E0,-1.786060333E0
7.341944236E0,-2.453981876E0,-1.389376163E0,-2.234157085E0
7.352278128E0,-2.296770811E0,-4.154348373E-1,-2.085089207E0
7.362200574E0,-2.511329412E0,2.845993042E-1,-1.895782471E0
7.372019297E0,-2.720644236E0,1.888966560E-2,-2.502345085E0
7.381955159E0,-2.813915730E0,8.954024315E-2,-2.430886269E0
7.391900090E0,-2.414105415E0,3.062250614E-1,-1.378669739E0
7.402538555E0,-1.930653095E0,2.140357494E-1,-5.745801926E-1
7.412205288E0,-1.581658125E0,-2.898223400E-1,-3.040761948E-1
7.422076154E0,-1.307736874E0,-8.534129858E-1,-2.839002609E-1
7.432035087E0,-1.062410593E0,-1.303802133E0,-2.158041000E-1
7.442073554E0,-9.997185469E-1,-1.696921468E0,-4.296875000E-2
7.452735287E0,-1.028172135E0,-1.791847706E0,3.937816620E-1
7.462336654E0,-1.224030972E0,-1.341083646E0,1.006364822E0
7.472087337E0,-1.548065424E0,-7.111606598E-1,1.472197533E0
7.482004679E0,-1.563611507E0,-4.938480854E-1,2.213667870E0
7.491932350E0,-1.548885226E0,-4.958033562E-1,2.722010612E0
7.502264685E0,-1.483619452E0,-5.406416655E-1,2.691149712E0
7.512043353E0,-1.384276271E0,-4.051053524E-1,2.937994003E0
7.522152687E0,-1.202034235E0,-3.491548300E-1,3.276835442E0
7.532007354E0,-8.824964762E-1,-2.927925587E-1,3.466757774E0
7.542011687E0,-5.516370535E-1,-2.885950804E-1,3.401187897E0
7.551911354E0,-4.249802232E-1,-2.933224440E-1,3.154165268E0
7.561935187E0,-5.983927846E-1,-2.045840025E-1,2.803007126E0
7.571890604E0,-1.266224861E0,-4.739975929E-2,2.818014145E0
7.581954312E0,-1.500151038E0,-2.619798183E-1,1.978549957E0
7.592152666E0,-1.653814316E0,-3.825719357E-1,1.270085335E0
7.602044843E0,-1.928646445E0,-4.749555588E-1,1.039499283E0
7.612012432E0,-2.178732395E0,-3.295626640E-1,1.205184937E0
7.622004726E0,-2.258441210E0,-3.569378853E-1,1.339889526E0
7.631989873E0,-2.142158031E0,-4.956891537E-1,1.797022820E0
7.641980447E0,-2.045510769E0,-8.870993853E-1,2.410564423E0
7.652243734E0,-1.956393480E0,-1.218080521E0,3.320465088E0
7.662120377E0,-1.777209520E0,-1.468166113E0,4.366793633E0
7.671973699E0,-1.359529257E0,-1.702076554E0,5.596894264E0
7.681954360E0,-1.082061291E0,-2.078253031E0,5.480919838E0
7.691874190E0,-8.605723381E-1,-2.434431314E0,4.958911896E0
7.701954605E0,-9.822854996E-1,-2.576100588E0,4.083415985E0
7.712360313E0,-1.308561206E0,-2.285928488E0,1.522541046E0
7.722167167E0,-1.550137281E0,-1.909239769E0,1.546980858E0
7.731991594E0,-1.539052844E0,-1.835616946E0,1.493358612E-1
7.741919807E0,-1.343208432E0,-1.766801596E0,-8.298921585E-1
7.752200914E0,-8.835954666E-1,-1.502211452E0,-1.799820900E0
7.762054467E0,-8.832159042E-1,-1.668420792E0,-1.795465946E0
7.771958244E0,-1.071991920E0,-1.466728449E0,-1.449431419E0
7.781907132E0,-1.148748279E0,-1.325433969E0,-1.265781403E0
7.791891576E0,-1.144290328E0,-1.509216309E0,-1.466273308E0
7.801881298E0,-1.252955437E0,-1.626083255E0,-1.713983536E0
7.813227159E0,-1.536217213E0,-1.558878422E0,-2.095426083E0
7.822558090E0,-1.756980658E0,-1.448689699E0,-2.723372459E0
7.832173555E0,-1.814211369E0,-1.408988476E0,-3.309072495E0
7.842408288E0,-1.738046169E0,-1.360670328E0,-3.684481144E0
7.852135654E0,-1.627413988E0,-1.279637337E0,-3.907599449E0
7.863510337E0,-1.553812742E0,-1.320908666E0,-4.141474724E0
7.872666679E0,-1.473148584E0,-1.092493653E0,-3.993633270E0
7.882337350E0,-1.354635715E0,-9.141256809E-1,-3.630911827E0
7.892152685E0,-1.138714552E0,-9.263265133E-1,-3.723521233E0
7.902034353E0,-9.914529324E-1,-9.402728081E-1,-3.654878616E0
7.911923687E0,-9.137337208E-1,-8.328000307E-1,-3.360180855E0
7.921931354E0,-9.204087257E-1,-7.056012154E-1,-3.234031677E0
7.931909687E0,-8.436930180E-1,-6.299746037E-1,-2.914708138E0
7.941930854E0,-8.029477596E-1,-5.138925314E-1,-2.739402771E0
7.951868937E0,-8.792386055E-1,-3.585730791E-1,-2.705610275E0
7.961998479E0,-9.866907597E-1,-1.763374805E-1,-2.764837265E0
7.971997250E0,-1.036176920E0,6.426334381E-3,-2.881217003E0
7.982268635E0,-9.567751884E-1,1.814303398E-1,-2.857090473E0
7.992067828E0,-8.548607826E-1,3.792650700E-1,-2.617770672E0
8.002056924E0,-6.949648857E-1,5.271384716E-1,-2.257787228E0
8.011954972E0,-5.296089649E-1,6.599586010E-1,-1.767991066E0
8.022116496E0,-4.380085468E-1,8.741550446E-1,-1.195336342E0
8.032013258E0,-2.748429775E-1,1.040464163E0,-5.159502029E-1
8.041990639E0,-1.135981083E-1,1.021526098E0,1.575107574E-1
8.051904330E0,-1.223576069E-1,9.436762333E-1,7.892942429E-1
8.061927175E0,-3.032748699E-1,8.597080708E-1,1.316566467E0
8.071997098E0,-6.268656254E-1,8.548846245E-1,1.870090485E0
8.082039059E0,-9.071545601E-1,9.152276516E-1,2.364078522E0
8.091930040E0,-1.068347096E0,9.720537663E-1,2.645105362E0
8.101935030E0,-1.157425046E0,1.058665276E0,2.731974602E0
8.113552025E0,-1.234211683E0,1.157029271E0,2.706247330E0
8.122778023E0,-1.189653873E0,1.187210321E0,2.662645340E0
8.132360522E0,-1.080717564E0,1.152494431E0,2.603987694E0
8.142320771E0,-9.277619123E-1,1.172209501E0,2.645123482E0
8.152287896E0,-6.930229664E-1,1.120802879E0,2.722687721E0
8.162179458E0,-4.296972752E-1,1.027082801E0,2.605710983E0
8.172057739E0,-2.080154419E-1,9.330593348E-1,2.205640793E0
8.182025380E0,-1.594955921E-1,9.177802801E-1,1.682924271E0
8.192205700E0,-2.208364010E-1,8.575310707E-1,1.298126221E0
8.202036860E0,-4.070962667E-1,8.531713486E-1,1.217179298E0
8.211982940E0,-7.026594877E-1,8.099864721E-1,1.439970970E0
8.222060980E0,-1.179345131E0,1.010849357E0,2.315766335E0
8.231959500E0,-1.692205548E0,8.364328146E-1,3.641006470E0
8.241919760E0,-2.047354937E0,2.484982014E-1,4.321706772E0
8.251875390E0,-2.314044952E0,-3.650840521E-1,5.173540115E0
8.263468705E0,-2.314869881E0,-7.845448852E-1,5.741284370E0
8.273193363E0,-2.115307331E0,-1.351308107E0,5.677329063E0
8.282529192E0,-2.166509628E0,-1.273639917E0,5.660612106E0
8.292160106E0,-2.044260979E0,-1.345619559E0,4.996527672E0
8.302043563E0,-1.428151131E0,-1.372493267E0,2.842751503E0
8.311935792E0,-1.020594716E0,-1.392254114E0,1.754552841E0
8.321956906E0,-5.957101583E-1,-1.274754047E0,7.970180511E-1
8.331877463E0,-5.405783653E-2,-1.236976624E0,4.761028290E-2
8.341892742E0,4.922896028E-1,-1.160220623E0,-8.810434341E-1
8.351893881E0,1.240364909E0,-7.718377709E-1,-2.431426048E0
8.362036451E0,1.188912272E0,-6.484189034E-1,-1.357424736E0
8.371950236E0,1.016092658E0,-6.428911090E-1,-9.629116058E-1
8.381922128E0,8.509719372E-1,-4.779138565E-1,-1.371091843E0
8.391881074E0,7.365996242E-1,-5.761016011E-1,-1.877560139E0
8.401878047E0,4.375607967E-1,-6.755930185E-1,-2.510420322E0
8.411841034E0,9.721601009E-2,-6.530907154E-1,-3.204876423E0
8.422045527E0,-1.117478609E-1,-7.918430567E-1,-3.021330833E0
8.432056774E0,-2.577885389E-1,-7.289627790E-1,-2.906472206E0
8.441954397E0,-3.664157391E-1,-5.469079018E-1,-3.294573307E0
8.451894209E0,-2.658522129E-1,-4.594365358E-1,-3.791543961E0
8.461976115E0,-8.257174492E-2,-5.297685862E-1,-3.876430511E0
8.471945068E0,1.021513939E-1,-4.521249533E-1,-3.089657307E0
8.481954044E0,9.257459641E-2,-2.318583727E-1,-3.428437233E0
8.491897532E0,2.168276310E-1,-2.334784269E-1,-3.479962349E0
8.502162276E0,3.511388302E-1,-2.733399868E-1,-3.396097660E0
8.512138648E0,2.822620869E-1,-2.604961395E-1,-3.748902798E0
8.522023834E0,2.648614645E-1,-1.462606192E-1,-3.720040798E0
8.531923427E0,1.668717861E-1,-1.795115471E-1,-3.780357361E0
8.541944224E0,9.783029556E-2,-8.953762054E-2,-3.732790470E0
8.552270622E0,3.278815746E-2,5.096435547E-3,-3.537440777E0
8.562090321E0,-5.914008617E-2,8.162498474E-2,-3.213561535E0
8.571984671E0,-1.959733963E-1,2.621362209E-1,-2.832345963E0
8.582270346E0,-2.862079144E-1,4.647612572E-1,-2.566183567E0
8.592037183E0,-2.665146589E-1,5.280859470E-1,-2.317398548E0
8.602233102E0,-2.946188450E-1,7.633962631E-1,-2.017025948E0
8.612071561E0,-1.965473890E-1,9.121553898E-1,-1.525744915E0
8.622044291E0,-6.743717194E-2,1.007759094E0,-1.370911598E0
8.632029156E0,-4.708588123E-2,1.045587778E0,-1.132329941E0
8.642388088E0,-2.058844566E-1,1.084218502E0,-7.713947296E-1
8.652126054E0,-5.566096306E-1,1.091945410E0,-3.644742966E-1
8.662061037E0,-9.943042994E-1,1.092436075E0,1.287899017E-1
8.671999529E0,-1.520608306E0,1.147120237E0,6.620531082E-1
8.682002275E0,-2.056909561E0,1.143528938E0,1.252223015E0
8.692250648E0,-2.496894836E0,1.214667082E0,1.851731300E0
8.702060834E0,-2.793438435E0,1.250715852E0,2.389538765E0
8.711928427E0,-2.916997433E0,1.309244275E0,2.793328285E0
8.721888724E0,-2.760443687E0,1.402611971E0,3.206348419E0
8.731912372E0,-2.399951935E0,1.611737609E0,3.521595955E0
8.741942196E0,-1.738144994E0,1.514566064E0,4.059150696E0
8.751888108E0,-1.083275318E0,1.228735566E0,4.169217110E0
8.761949064E0,-5.859384537E-1,1.043930054E0,3.366636276E0
8.771885542E0,-3.257340193E-1,9.817489386E-1,2.429923058E0
8.782033781E0,-5.352268219E-1,7.842272520E-1,1.833766937E0
8.791897901E0,-1.136372209E0,6.408346891E-1,1.815734863E0
8.801905961E0,-1.533571601E0,4.163414240E-1,1.990780830E0
8.813717991E0,-2.436221600E0,9.056639671E-2,2.787856102E0
8.822834506E0,-2.438021660E0,1.910939217E-1,2.772162437E0
8.832330263E0,-2.803137302E0,-7.945084572E-2,4.173967361E0
8.842108142E0,-3.427689314E0,-3.334913850E-1,4.617429733E0
8.851966081E0,-3.537016392E0,-5.042945743E-1,4.760047913E0
8.862025551E0,-3.538062572E0,-6.833265424E-1,4.241852760E0
8.871915286E0,-3.277042389E0,-9.669114351E-1,3.496741295E0
8.881988653E0,-3.095082760E0,-1.051905632E0,2.630040169E0
8.892162837E0,-3.026911736E0,-9.402198195E-1,1.580128670E0
8.902086429E0,-2.920420170E0,-7.459359765E-1,4.566793442E-1
8.912290725E0,-2.652691841E0,-6.063715816E-1,-6.095495224E-1
8.922092873E0,-2.282001257E0,-4.981447458E-1,-1.460736275E0
8.931943947E0,-1.884026766E0,-4.826623201E-1,-1.999515057E0
8.941937984E0,-1.510891199E0,-4.367989302E-1,-2.266502857E0
8.951877002E0,-1.236546874E0,-4.151346684E-1,-2.377321720E0
8.961997011E0,-1.037991881E0,-4.925394058E-1,-2.446146488E0
8.971956016E0,-9.761176109E-1,-6.235848665E-1,-2.559106350E0
8.981866518E0,-1.121361971E0,-7.743166089E-1,-2.795772552E0
8.991837769E0,-1.350558400E0,-9.036985636E-1,-2.939142227E0
9.001918395E0,-1.612764001E0,-9.870170355E-1,-3.058070183E0
9.011895708E0,-1.842284560E0,-1.031363606E0,-3.156401157E0
9.021903364E0,-2.075903654E0,-1.043459654E0,-3.178645611E0
9.031936692E0,-2.168316364E0,-1.037035704E0,-3.138119698E0
9.041924356E0,-2.147406578E0,-1.049783945E0,-3.030534267E0
9.051870188E0,-2.058989048E0,-1.005841732E0,-2.918662548E0
9.061981104E0,-1.922189951E0,-9.802829623E-1,-2.869637489E0
9.071892562E0,-1.784227729E0,-9.582656026E-1,-2.977797985E0
9.081977791E0,-1.682474256E0,-9.283381104E-1,-3.151377678E0
9.092209406E0,-1.639951944E0,-8.508626819E-1,-3.333498001E0
9.102055213E0,-1.608603835E0,-7.521662712E-1,-3.487566471E0
9.112000117E0,-1.498854995E0,-6.626335382E-1,-3.461861134E0
9.121963569E0,-1.315463901E0,-5.388181210E-1,-3.206152916E0
9.131950295E0,-1.068593979E0,-3.957351446E-1,-2.864289284E0
9.142036658E0,-8.497582674E-1,-2.652488947E-1,-2.640502453E0
9.152050839E0,-6.274508238E-1,-1.404606104E-1,-2.603437424E0
9.162128930E0,-5.084924698E-1,3.807723522E-2,-2.709710598E0
9.171975975E0,-4.957665205E-1,2.256634235E-1,-2.775135994E0
9.181927498E0,-5.179388523E-1,3.841185570E-1,-2.706853867E0
9.192227759E0,-5.029866695E-1,5.759021044E-1,-2.370932102E0
9.202119390E0,-3.896666765E-1,6.786303520E-1,-1.805259228E0
9.211968205E0,-1.881783009E-1,6.664484739E-1,-1.256152153E0
9.221928113E0,-1.216852665E-1,6.181337833E-1,-7.775182724E-1
9.231862067E0,-1.080487967E-1,5.320811272E-1,-3.758258820E-1
9.241868544E0,-1.473295689E-1,4.635117054E-1,9.825801849E-2
9.251850782E0,-1.940840483E-1,4.327737093E-1,7.012557983E-1
9.261946901E0,-1.994911432E-1,4.326735735E-1,1.393701553E0
9.271950461E0,-2.370316982E-1,4.620860815E-1,2.134928703E0
9.281911741E0,-2.202723026E-1,4.620860815E-1,2.798123360E0
9.292335381E0,-3.293632269E-1,4.729206562E-1,3.127259254E0
9.302151701E0,-4.664684534E-1,5.095018148E-1,3.325821877E0
9.312153361E0,-6.364592314E-1,5.393843651E-1,3.361241341E0
9.322035191E0,-7.931441069E-1,5.598745346E-1,3.291240692E0
9.332005106E0,-8.553006649E-1,5.689479113E-1,3.249940872E0
9.341999063E0,-8.287707567E-1,6.264461279E-1,3.186061859E0
9.351900542E0,-6.876929998E-1,7.199640274E-1,3.037596703E0
9.362022781E0,-1.489887238E-1,7.776614428E-1,2.571462631E0
9.371940901E0,8.242917061E-2,7.770636082E-1,2.324916840E0
9.382017461E0,1.686204076E-1,7.746694088E-1,2.127394676E0
9.392236241E0,-1.152169704E-2,7.360124588E-1,2.040620804E0
9.402093631E0,-2.031918168E-1,5.726011992E-1,2.218277931E0
9.411953826E0,-3.674371839E-1,3.658844233E-1,2.731678963E0
9.421929923E0,-5.484210253E-1,1.400856972E-1,3.353849411E0
9.431926972E0,-7.026537061E-1,-4.677021503E-2,3.954442024E0
9.441924496E0,-7.127658129E-1,-2.315256596E-1,4.281881332E0
9.452177258E0,-6.443637013E-1,-4.829837680E-1,4.248254776E0
9.462072639E0,-6.097331047E-1,-6.763860583E-1,3.802513123E0
9.471996330E0,-6.248940229E-1,-7.071264386E-1,3.116604805E0
9.481972675E0,-5.838963389E-1,-6.940581799E-1,2.373736382E0
9.493460348E0,-3.443050086E-1,-6.915079355E-1,1.605935097E0
9.502743684E0,3.542035818E-2,-7.435631156E-1,8.635301590E-1
9.512317352E0,3.885650933E-1,-7.842645645E-1,1.955480576E-1
9.522162186E0,6.727335453E-1,-7.076736689E-1,-3.906927109E-1
9.532002103E0,8.015164137E-1,-4.054318666E-1,-9.878683090E-1
9.541966562E0,8.503431082E-1,-1.975440979E-1,-1.463560104E0
9.551882791E0,7.920055389E-1,-1.458320618E-1,-1.679164886E0
9.562702906E0,5.679535270E-1,-1.498525143E-1,-1.623318672E0
9.572423963E0,3.423381448E-1,-1.829770803E-1,-1.598620415E0
9.582152992E0,8.249282837E-2,-2.806029320E-1,-1.575444221E0
9.591974006E0,-2.114928961E-1,-3.635538220E-1,-1.613960266E0
9.601911513E0,-5.359839201E-1,-3.214406967E-1,-1.767446041E0
9.611919267E0,-8.251699209E-1,-2.328646183E-1,-1.950170517E0
9.621918144E0,-9.720851779E-1,-1.632776260E-1,-2.232439995E0
9.631851582E0,-9.959522486E-1,-8.487665653E-2,-2.502732277E0
9.641915801E0,-8.809195757E-1,-2.860164642E-2,-2.691715717E0
9.651971411E0,-6.773209572E-1,6.397712231E-2,-2.798188686E0
9.661993716E0,-4.478184581E-1,1.741802692E-1,-2.873731136E0
9.671921368E0,-2.584563792E-1,1.916251183E-1,-3.144743443E0
9.682777194E0,-1.783822775E-1,1.207110882E-1,-3.396828175E0
9.692354107E0,-3.240889907E-1,9.515488148E-2,-3.580864906E0
9.702180564E0,-6.330479383E-1,1.493663788E-1,-3.786098003E0
9.711985792E0,-9.448367357E-1,1.812092066E-1,-3.917452812E0
9.722010906E0,-1.156869173E0,1.610922813E-1,-3.932269573E0
9.732667463E0,-1.353331208E0,1.773258448E-1,-3.921759129E0
9.742258742E0,-1.460465908E0,2.340551615E-1,-3.857820034E0
9.752046381E0,-1.555439472E0,3.299940825E-1,-3.608396530E0
9.762029701E0,-1.491503954E0,4.166179895E-1,-3.238376617E0
9.771938361E0,-1.289895058E0,4.308472872E-1,-2.867003441E0
9.782138691E0,-1.013916612E0,4.487349987E-1,-2.340986729E0
9.791955356E0,-7.753250599E-1,5.406399965E-1,-1.951162815E0
9.802055188E0,-5.401519537E-1,6.595395803E-1,-1.558340073E0
9.811992604E0,-2.608797252E-1,7.755714655E-1,-9.363918304E-1
9.822061312E0,1.960843801E-3,9.203860760E-1,-1.704978943E-1
9.832038166E0,2.654437423E-1,1.012752414E0,2.087440491E-1
9.841978593E0,5.558928847E-1,9.427230358E-1,6.238994598E-1
9.852477307E0,4.308820665E-1,8.968824148E-1,1.070020676E0
9.862189664E0,3.536516726E-1,9.400705099E-1,1.063356400E0
9.871998342E0,-2.438171953E-2,1.021981716E0,1.302478790E0
9.882114681E0,-4.867666662E-1,1.036378741E0,2.724835396E0
9.892056851E0,-8.909902573E-1,9.790976048E-1,2.716073990E0
9.902117436E0,-1.179503798E0,8.498585224E-1,3.883356094E0
9.912045228E0,-1.378127456E0,1.277192593E0,4.207570076E0
9.922089124E0,-6.943666339E-1,9.388527870E-1,4.495576859E0
9.932493072E0,-4.520096779E-1,1.589853048E0,4.354457855E0
9.942209546E0,-6.508919001E-1,1.843178034E0,3.461393356E0
9.952029783E0,-4.635685682E-2,7.839583158E-1,2.743319511E0
9.961963402E0,5.704461932E-1,3.514200449E-2,2.813169479E0
9.971881711E0,6.309534311E-1,-7.388055325E-3,3.350273132E0
9.981910366E0,2.251021266E-1,3.875445724E-1,3.834395409E0
9.991874193E0,-1.664676666E-1,7.007681131E-1,4.355429649E0
1.000187561E1,-2.463585734E-1,6.680269837E-1,4.916787148E0
1.001183931E1,-7.240200043E-2,4.265517592E-1,5.164203644E0
1.002194967E1,7.474029064E-2,2.642347217E-1,4.907878876E0
1.003188234E1,1.420291662E-1,8.089447618E-1,4.119913101E0
1.004201718E1,-1.996554136E-1,1.247510195E0,2.756072998E0
1.005243510E1,-8.525571227E-1,3.963460922E-1,8.241443634E-1
1.006216656E1,-9.840163589E-1,-6.975837350E-1,-7.036304474E-1
1.007199979E1,-9.083201289E-1,-1.457093716E0,-1.567143440E0
1.008199041E1,-9.475387931E-1,-1.765146732E0,-1.969361305E0
1.009193721E1,-1.166689515E0,-1.768038034E0,-1.698711872E0
1.010193062E1,-1.642541885E0,-1.333668590E0,-8.939790726E-1
1.011187582E1,-2.305070162E0,-6.119786501E-1,-1.209068298E-1
1.012199442E1,-2.638506889E0,-2.014944553E-1,3.068723679E-1
1.013190672E1,-2.522789955E0,-2.427596748E-1,3.587741852E-1
1.014190137E1,-2.359286308E0,-3.551417589E-1,1.676073074E-1
1.015186120E1,-2.148349762E0,-4.657469690E-1,-3.360109329E-1
1.016187811E1,-1.650596142E0,-6.049802899E-1,-2.416429520E-1
1.017214856E1,-1.608087659E0,-6.890476346E-1,-7.706012726E-1
1.018200079E1,-1.721801758E0,-7.981371880E-1,-1.075255394E0
1.019201841E1,-1.802461028E0,-9.694808722E-1,-1.422422409E0
1.020196821E1,-2.096109629E0,-9.065971375E-1,-1.660471916E0
1.021263912E1,-2.230479956E0,-7.184370160E-1,-1.795987606E0
1.022249257E1,-2.216114759E0,-5.831646323E-1,-1.853448391E0
1.023231180E1,-2.017499208E0,-5.240064263E-1,-1.998074532E0
1.024211091E1,-1.858046055E0,-4.549738169E-1,-2.243278980E0
1.025197946E1,-1.792084455E0,-3.679942191E-1,-2.432946205E0
1.026200974E1,-1.803977489E0,-3.068015873E-1,-2.536029816E0
1.027196788E1,-1.782093763E0,-3.220508099E-1,-2.580376625E0
1.028194745E1,-1.737934828E0,-3.671509326E-1,-2.553755760E0
1.029189624E1,-1.673942089E0,-3.287875652E-1,-2.588023663E0
1.030192863E1,-1.552784443E0,2.469778061E-2,-2.548872471E0
1.031188082E1,-1.466168404E0,-3.572493792E-2,-2.887242794E0
1.032187392E1,-1.272865295E0,-2.024678588E-1,-2.997442245E0
1.033187547E1,-9.827805758E-1,-1.714181304E-1,-2.628358841E0
1.034206425E1,-8.482446671E-1,9.526586533E-2,-2.367490768E0
1.035194113E1,-9.468185902E-1,3.896685839E-1,-2.061148167E0
1.036214458E1,-1.077526927E0,5.958586931E-1,-1.652531624E0
1.037197730E1,-1.011112094E0,5.041190386E-1,-1.306532860E0
1.038197366E1,-8.878768086E-1,4.736689329E-1,-1.188030243E0
1.039190534E1,-6.831586361E-1,5.430463552E-1,-1.229054451E0
1.040191868E1,-4.199917018E-1,6.786913872E-1,-1.085465431E0
1.041242885E1,-2.879450098E-2,9.314496517E-1,-9.833612442E-1
1.042227044E1,-4.400602356E-2,8.707319498E-1,-9.721212387E-1
1.043215623E1,-3.749313205E-2,9.321506023E-1,-5.378417969E-1
1.044201462E1,-2.956318259E-1,1.098731875E0,-1.615056992E-1
1.045190432E1,-4.743574858E-1,1.114294171E0,2.209539413E-1
1.046203467E1,-6.192634702E-1,1.077461362E0,7.197999954E-1
1.047193335E1,-6.545218229E-1,1.035327435E0,1.525903702E0
1.048191218E1,-5.247658491E-1,1.022742867E0,2.510278702E0
1.049186510E1,-3.397196829E-1,8.532077074E-1,3.013166428E0
1.050189256E1,-1.822971106E-1,6.997966766E-1,3.430140495E0
1.051187279E1,-2.462514043E-1,6.898691654E-1,3.655740738E0
1.052235791E1,-4.840417802E-1,8.488669395E-1,3.742607117E0
1.053210246E1,-6.115732789E-1,9.990899563E-1,3.678894997E0
1.054214624E1,-6.544818878E-1,1.205342770E0,3.512422562E0
1.055200613E1,-7.135533094E-1,1.464816689E0,3.435639381E0
1.056213458E1,-3.161473572E-1,1.318919539E0,2.758744240E0
1.057239480E1,-9.582535177E-2,1.320639849E0,2.490262985E0
1.058216241E1,-2.051908672E-1,1.555394888E0,2.067567825E0
1.059207872E1,-2.770973444E-1,1.604610443E0,1.606326103E0
1.060198837E1,-2.008741647E-1,1.466974854E0,1.647685051E0
1.061199369E1,-3.476421535E-2,1.233422041E0,1.959017754E0
1.062207486E1,1.629355550E-1,8.752619028E-1,2.715308189E0
1.063360694E1,2.952143550E-1,5.091960430E-1,3.583217621E0
1.064284448E1,6.447677612E-1,1.958179474E-2,4.319435120E0
1.065233375E1,7.184635401E-1,-2.102168798E-1,4.709935188E0
1.066226238E1,6.670001149E-1,-4.236944914E-1,4.510437012E0
1.067206120E1,5.962646604E-1,-7.023258209E-1,4.089818001E0
1.068198111E1,4.378606081E-1,-8.430468440E-1,3.494379044E0
1.069225957E1,7.448369265E-2,-7.201582193E-1,2.862593651E0
1.070211479E1,-1.402046680E-1,-7.110207677E-1,1.867079735E0
1.071203591E1,-1.603215933E-1,-7.490199208E-1,8.545618057E-1
1.072221846E1,-1.429863572E-1,-6.966555715E-1,3.258705139E-2
1.073202424E1,-1.060931087E-1,-6.164332628E-1,-7.379693985E-1
1.074199413E1,-7.645189762E-3,-6.247116327E-1,-1.360322952E0
1.075195608E1,8.137041330E-2,-6.410270929E-1,-1.859544754E0
1.076203105E1,8.529067039E-2,-6.086814404E-1,-2.257806778E0
1.077194003E1,5.675530434E-2,-6.114801168E-1,-2.481690407E0
1.078193253E1,3.881973028E-2,-6.885839701E-1,-2.511086941E0
1.079186977E1,-9.823322296E-3,-8.027311563E-1,-2.500174999E0
1.080185690E1,-7.809722424E-2,-8.679575920E-1,-2.386428356E0
1.081204446E1,-1.541519165E-1,-8.811684847E-1,-2.342582226E0
1.082198424E1,-2.667522430E-1,-8.730279207E-1,-2.429666996E0
1.083190413E1,-4.529480338E-1,-8.519135714E-1,-2.648798943E0
1.084195558E1,-6.593371630E-1,-7.773485184E-1,-2.870001316E0
1.085187330E1,-7.995819449E-1,-6.860095263E-1,-3.039595127E0
1.086190866E1,-8.427237272E-1,-5.814769268E-1,-3.142823219E0
1.087186134E1,-7.839124203E-1,-4.694594145E-1,-3.192458153E0
1.088185918E1,-6.351663470E-1,-3.377392292E-1,-3.115164280E0
1.089181710E1,-4.079472423E-1,-2.026717663E-1,-2.929740429E0
1.090183506E1,-1.921869516E-1,-1.054372787E-1,-2.741576672E0
1.091179904E1,8.311569691E-3,-5.078768730E-2,-2.432548523E0
1.092190303E1,9.914618731E-2,-4.353976250E-2,-2.244098186E0
1.093185452E1,7.048451900E-2,-6.069636345E-2,-2.220912457E0
1.094181127E1,-1.103289127E-1,-8.479952812E-2,-2.241279602E0
1.095194115E1,-3.688343167E-1,-2.765512466E-2,-2.440738201E0
1.096190208E1,-6.013104916E-1,7.614231110E-2,-2.657255173E0
1.097192205E1,-7.817134261E-1,2.387828827E-1,-2.899603844E0
1.098188554E1,-6.640419960E-1,5.920207500E-1,-2.781578064E0
1.099187178E1,-3.938666582E-1,6.775934696E-1,-2.343928814E0
1.100222790E1,-1.764276028E-1,7.467441559E-1,-1.878914833E0
1.101202346E1,-1.927834749E-2,8.697965145E-1,-1.441993237E0
1.102193224E1,9.379082918E-2,9.697446823E-1,-1.287193298E0
1.103187813E1,1.169831753E-1,1.030973911E0,-1.260584831E0
1.104188858E1,2.914505005E-1,1.064908028E0,-1.513060093E0
1.105211180E1,3.099179864E-1,1.136141539E0,-1.587540627E0
1.106212891E1,2.263184190E-1,1.142438173E0,-1.685566902E0
1.107197096E1,7.701307535E-2,1.137928009E0,-1.491938114E0
1.108192449E1,-2.097193301E-1,1.123094559E0,-1.124113083E0
1.109193476E1,-4.528114200E-1,1.046292305E0,-5.343494415E-1
1.110217389E1,-7.129579782E-1,9.950349331E-1,9.022617340E-2
1.111198846E1,-9.447476864E-1,1.030100822E0,5.614614487E-1
1.112190874E1,-1.070707560E0,1.099269390E0,9.793157578E-1
1.113184238E1,-9.976508617E-1,1.261101007E0,1.220585823E0
1.114198420E1,-7.892422676E-1,1.466608047E0,1.582488060E0
1.115199461E1,-5.448695421E-1,1.590024471E0,1.933654785E0
1.116195732E1,-4.289692044E-1,1.656015158E0,2.151720047E0
1.117243917E1,-2.987278104E-1,1.761443615E0,1.675440788E0
1.118215659E1,-1.340403557E-1,1.762530804E0,1.626001358E0
1.119210131E1,-3.781070709E-1,1.812976360E0,1.484069824E0
1.120199466E1,-5.408541560E-1,1.901759148E0,1.004851341E0
1.121192834E1,-6.779938340E-1,1.902273178E0,7.436351776E-1
1.122191018E1,-7.878748775E-1,1.852417231E0,6.891136169E-1
1.123187710E1,-8.205006719E-1,1.715985060E0,8.357868195E-1
1.124204806E1,-8.091549277E-1,1.527537107E0,1.084307671E0
1.125197954E1,-7.059473991E-1,1.306551218E0,1.609025002E0
1.126188778E1,-5.871757865E-1,1.082339525E0,2.293168068E0
1.127184040E1,-5.012735724E-1,8.364193439E-1,3.134272575E0
1.128187921E1,-3.885175288E-1,5.354793072E-1,3.931773186E0
1.129403112E1,-3.065504134E-1,1.222929955E-1,4.477049828E0
1.131188302E1,-4.237368703E-1,-2.140409946E-1,4.543441772E0
1.132179402E1,-8.068091273E-1,-2.954435349E-1,4.095726013E0
1.133260502E1,-1.124554992E0,-3.600549698E-1,3.206194878E0
1.134183802E1,-1.374788404E0,-5.216194391E-1,2.130680084E0
1.135190002E1,-1.593938351E0,-5.810288191E-1,1.094873428E0
1.136183102E1,-1.739657998E0,-4.872276783E-1,1.733732224E-1
1.137193602E1,-1.897744775E0,-3.870859146E-1,-5.933637619E-1
1.138187302E1,-1.937533498E0,-3.416042328E-1,-1.117650032E0
1.139191102E1,-1.815234303E0,-2.818419933E-1,-1.416065216E0
1.140269302E1,-1.705569267E0,-2.362179756E-1,-1.475921631E0
1.141188702E1,-1.478989124E0,-2.506458759E-1,-1.281445503E0
1.142180002E1,-1.202217340E0,-3.614823818E-1,-1.021045685E0
1.143197502E1,-1.467274547E0,-8.542855978E-1,-7.545957565E-1
1.144195002E1,-1.094879508E0,-1.162805319E0,-8.257770538E-2
1.145196802E1,-5.499022603E-1,-1.394149542E0,5.695562363E-1
1.146182802E1,-6.277796626E-1,-1.064690113E0,4.797277451E-1
1.147190902E1,-1.159165025E0,-3.728276491E-1,1.464633942E-1
1.148187702E1,-1.440399170E0,1.134183407E-1,1.177883148E-2
1.149199902E1,-1.384165645E0,2.795546055E-1,-1.735506058E-1
1.150215702E1,-1.274981380E0,3.605060577E-1,-4.930849075E-1
1.151199102E1,-1.131735086E0,3.622157574E-1,-9.203748703E-1
1.152178002E1,-1.039564133E0,3.086619377E-1,-1.370636940E0
1.153187502E1,-7.410389185E-1,1.977040768E-1,-2.239531040E0
1.154220902E1,-6.473962665E-1,1.347610950E-1,-2.554131031E0
1.155188002E1,-6.108003855E-1,1.463754177E-1,-2.745438576E0
1.156181302E1,-6.120403409E-1,1.491460800E-1,-2.952383995E0
1.157177002E1,-6.007096171E-1,1.123294830E-1,-3.209445953E0
1.158329402E1,-5.085489750E-1,1.436471939E-3,-3.407945633E0
1.159186202E1,-3.409692943E-1,-9.809327126E-2,-3.369664192E0
1.160178402E1,-2.539961040E-1,1.006197929E-2,-3.166357040E0
1.161186502E1,-2.780542374E-1,2.241337299E-1,-2.869830132E0
1.162178002E1,-3.551633358E-1,4.335098267E-1,-2.395903587E0
1.163197702E1,-3.609519601E-1,5.183820724E-1,-2.121016979E0
1.164177502E1,-4.216605127E-1,4.144212008E-1,-2.135328770E0
1.165214102E1,-3.674964011E-1,3.421289921E-1,-1.981355667E0
1.166187402E1,-2.359753847E-1,3.076653481E-1,-1.957435131E0
1.167212002E1,-2.711283565E-1,3.444064856E-1,-2.124128342E0
1.168187102E1,-2.268770337E-1,3.650202751E-1,-2.083944321E0
1.169292402E1,-4.897388816E-2,4.252028465E-1,-1.759103298E0
1.170188302E1,1.343501061E-1,4.780514240E-1,-1.352230072E0
1.171204502E1,3.383136690E-1,4.194977283E-1,-9.216547012E-1
1.172274702E1,6.551583409E-1,3.603650331E-1,-4.778375626E-1
1.173189002E1,7.870482206E-1,4.126120806E-1,-1.092519760E-1
1.174188702E1,7.598629594E-1,5.439349413E-1,3.746194839E-1
1.175209602E1,5.956785679E-1,6.192510128E-1,9.331235886E-1
1.176180802E1,3.816878498E-1,6.273651123E-1,1.417695999E0
1.177237102E1,2.083079219E-1,4.787322283E-1,1.533910751E0
1.178200602E1,1.382930577E-1,3.829792738E-1,1.277777672E0
1.179218502E1,1.982459426E-1,3.313474655E-1,7.265739441E-1
1.180177002E1,2.241298854E-1,5.353159904E-1,2.831087112E-1
1.181184502E1,5.376929045E-2,9.796427488E-1,4.377508163E-1
1.182176302E1,-2.104884386E-1,1.440995336E0,9.503269196E-1
1.183200002E1,-4.080705047E-1,1.657363534E0,1.691072464E0
1.184178102E1,-4.866459370E-1,1.525914073E0,2.090124130E0
1.185190302E1,-2.773576975E-1,1.159944654E0,1.865502357E0
1.186239602E1,1.188170910E-2,8.351252079E-1,1.586302757E0
1.187215502E1,1.349008083E-1,7.592219114E-1,1.506798744E0
1.188188302E1,7.652759552E-2,9.298778772E-1,1.800735474E0
1.189331902E1,-1.626139879E-1,1.417025685E0,2.311121941E0
1.190180502E1,-7.037034035E-1,1.836011052E0,2.997060776E0
1.191225002E1,-9.988833666E-1,1.818439007E0,3.750289917E0
1.192178202E1,-7.468842268E-1,1.153538942E0,4.606414795E0
1.193191402E1,-3.479239941E-1,2.803345323E-1,4.995128632E0
1.194178102E1,-2.345761061E-1,-1.724950075E-1,5.240978241E0
1.195189102E1,-2.613241673E-1,-4.629355073E-1,5.431744576E0
1.196271202E1,-1.546763182E-1,-7.180963755E-1,5.373926163E0
1.197175902E1,5.365490913E-3,-9.118916988E-1,5.138353348E0
1.198228602E1,1.201817989E-1,-9.378485084E-1,4.779852867E0
1.199434702E1,4.493889809E-1,-8.802963495E-1,3.388459206E0
1.201189302E1,6.691746116E-1,-8.656187057E-1,2.573147774E0
1.202177502E1,8.498269320E-1,-7.376660705E-1,1.875535011E0
1.203293602E1,6.829343438E-1,-3.487062454E-2,3.481416702E-1
1.204186302E1,8.103905320E-1,-1.401352882E-1,3.768939972E-1
1.205214902E1,1.151561737E0,-2.011727095E-1,-1.185598373E-1
1.206178902E1,1.283292294E0,-3.735308051E-1,-2.169895172E-1
1.207193102E1,1.694635987E0,-3.764657974E-1,1.916885376E-3
1.208183002E1,2.078530550E0,-1.919363737E-1,7.331562042E-2
1.209194902E1,2.276612520E0,-3.472194076E-1,-4.496603012E-1
1.210265102E1,2.263175488E0,-3.769823909E-1,-9.330406189E-1
1.211191302E1,2.040994406E0,-1.542044878E-1,-1.514528275E0
1.212182402E1,1.833304405E0,1.135026217E-1,-1.911074162E0
1.213216602E1,1.665671110E0,2.669385672E-1,-1.844653606E0
1.214250402E1,1.433612466E0,3.461856842E-1,-1.935430527E0
1.215210002E1,1.213741302E0,4.345123768E-1,-2.006044865E0
1.216185302E1,1.095802546E0,5.719164610E-1,-1.911193848E0
1.217187002E1,1.007860422E0,6.825122833E-1,-2.032515049E0
1.218184402E1,1.147051334E0,7.201452255E-1,-1.803029537E0
1.219189602E1,1.243016958E0,5.953887701E-1,-1.732532501E0
1.220183402E1,1.342850685E0,4.735320807E-1,-1.965954781E0
1.221186502E1,1.303437710E0,4.124295712E-1,-2.335785866E0
1.222258002E1,1.231456041E0,3.732455969E-1,-2.796964645E0
1.223199302E1,1.237313271E0,2.835936546E-1,-2.992737770E0
1.224179602E1,1.225374699E0,2.102491856E-1,-2.600067616E0
1.225184702E1,1.186892271E0,2.271744013E-1,-3.040661812E0
1.226179902E1,1.196808100E0,2.629014254E-1,-3.449783325E0
1.227192402E1,1.308812618E0,1.587567329E-1,-3.655209064E0
1.228187302E1,1.281533241E0,6.497716904E-2,-3.770824909E0
1.229187902E1,1.085427999E0,1.699340343E-1,-3.507817745E0
1.230184602E1,8.743190765E-1,2.689528465E-1,-3.843170643E0
1.231190802E1,6.763913631E-1,2.494564056E-1,-3.814625263E0
1.232188302E1,3.601679802E-1,2.068743706E-1,-3.125260830E0
1.233185802E1,3.162074089E-2,1.691844463E-1,-2.317405224E0
1.234218402E1,-1.616356373E-1,1.561815739E-1,-2.501997471E0
1.235188802E1,-2.267026901E-1,7.964515686E-2,-2.639997005E0
1.236194102E1,-2.669897079E-1,1.224241257E-1,-2.701464176E0
1.237184302E1,-3.512811661E-1,3.010950089E-1,-2.361174107E0
1.238194202E1,-5.111286640E-1,4.803729057E-1,-1.832744598E0
1.239316302E1,-6.929302216E-1,5.259816647E-1,-1.477777958E0
1.240182102E1,-8.674001694E-1,5.554838181E-1,-1.193793297E0
1.241187002E1,-1.067183495E0,6.277136803E-1,-8.956327438E-1
1.242175902E1,-1.314731598E0,7.789846659E-1,-2.641525269E-1
1.243221202E1,-1.602705479E0,9.816184044E-1,3.253526688E-1
1.244194002E1,-1.847996712E0,1.209197283E0,7.969179153E-1
1.245196102E1,-2.047386169E0,1.442137241E0,1.102828979E0
1.246184902E1,-2.092543602E0,1.575932384E0,1.325293541E0
1.247190502E1,-2.025039196E0,1.688630700E0,1.503334999E0
1.248277102E1,-1.985667229E0,1.759048223E0,1.848505020E0
1.249186502E1,-1.793296814E0,1.916670203E0,2.268471718E0
1.250180402E1,-1.506209373E0,2.094677925E0,2.139539719E0
1.251183702E1,-1.097043037E0,2.187314749E0,1.835253716E0
1.252177002E1,-7.811856270E-1,2.254248381E0,1.492526054E0
1.253255902E1,-7.059206963E-1,2.321740866E0,1.365207672E0
1.254192302E1,-7.837853432E-1,2.398444653E0,9.874200821E-1
1.255187802E1,-1.091866970E0,2.335561037E0,1.864771843E0
1.256183002E1,-1.316896915E0,2.321929455E0,2.039706230E0
1.257188202E1,-1.541148663E0,2.205896854E0,2.160895348E0
1.258180202E1,-1.689865589E0,1.988576293E0,2.327346802E0
1.259220202E1,-2.674253941E0,1.307269216E0,3.886453629E0
1.260200902E1,-3.140857697E0,8.707861900E-1,4.039095879E0
1.261185402E1,-3.666679859E0,2.992078066E-1,4.747632980E0
1.262175902E1,-4.133926392E0,-1.077007651E-1,5.120881081E0
1.263186602E1,-4.334213734E0,-4.613903463E-1,5.014670372E0
1.264185202E1,-4.275240898E0,-6.941968799E-1,4.498422623E0
1.265200002E1,-4.026712418E0,-7.642797828E-1,3.760755539E0
1.266180302E1,-3.541370392E0,-7.432448268E-1,2.880585670E0
1.267190902E1,-2.873335838E0,-7.030472755E-1,1.973887444E0
1.268180302E1,-2.159886360E0,-6.468490362E-1,1.115531921E0
1.269201302E1,-1.449481010E0,-6.208561063E-1,4.134464264E-1
1.270179902E1,-7.795152664E-1,-6.592273712E-1,-6.528854370E-2
1.271182702E1,-2.037076950E-1,-7.673563957E-1,-3.990645409E-1
1.272176702E1,1.743488312E-1,-9.126921892E-1,-6.363964081E-1
1.273195002E1,2.787537575E-1,-1.050691247E0,-7.487430573E-1
1.274182402E1,2.166485786E-1,-1.190527439E0,-8.263487816E-1
1.275220602E1,6.740903854E-2,-1.345060945E0,-9.171624184E-1
1.276244102E1,-1.371784210E-1,-1.434121609E0,-1.124220371E0
1.277185002E1,-3.451046944E-1,-1.453427196E0,-1.429356575E0
1.278225802E1,-4.839229584E-1,-1.435656309E0,-1.715157986E0
1.279186002E1,-5.833840370E-1,-1.385641813E0,-1.968392849E0
1.280178502E1,-6.058516502E-1,-1.308310628E0,-2.160920143E0
1.281229902E1,-4.952816963E-1,-1.305622935E0,-2.365617752E0
1.282178202E1,-2.985877991E-1,-1.306395769E0,-2.538055420E0
1.283189102E1,-1.152987480E-1,-1.297291756E0,-2.786340714E0
1.284193702E1,1.072378159E-1,-1.267258644E0,-3.037511349E0
1.285197002E1,3.922276497E-1,-1.266010523E0,-3.275659561E0
1.286261302E1,6.343417168E-1,-1.253550410E0,-3.508023262E0
1.287205502E1,8.576169014E-1,-1.194748282E0,-3.636956692E0
1.288185002E1,1.081503391E0,-1.171290874E0,-3.634443283E0
1.289226302E1,1.234909058E0,-1.080532551E0,-3.580231190E0
1.290180602E1,1.356644630E0,-9.907280207E-1,-3.517841339E0
1.291189902E1,1.455442429E0,-9.394650459E-1,-3.525515556E0
1.292185102E1,1.473633051E0,-8.810932636E-1,-3.566919804E0
1.293201902E1,1.440839052E0,-7.626292706E-1,-3.396575928E0
1.294186002E1,1.456142426E0,-7.049409151E-1,-3.166086197E0
1.295186702E1,1.480180025E0,-7.026547194E-1,-2.999187469E0
1.296201302E1,1.478611469E0,-6.831446886E-1,-2.985219002E0
1.297185802E1,1.427907705E0,-5.833059549E-1,-2.985941410E0
1.298182902E1,1.406985044E0,-5.085290670E-1,-2.871750355E0
1.299191002E1,1.343474865E0,-3.885626793E-1,-2.635556698E0
1.300182102E1,1.208024025E0,-2.298049927E-1,-2.203775883E0
1.301206102E1,1.091781139E0,-6.870460510E-2,-1.592569351E0
1.302179302E1,1.008516312E0,9.396791458E-3,-1.013416290E0
1.303189502E1,8.993668556E-1,5.133867264E-2,-5.507202148E-1
1.304184302E1,7.076592445E-1,1.235032082E-1,-1.482105255E-1
1.305209002E1,5.369739532E-1,1.633031368E-1,2.438316345E-1
1.306182502E1,3.554687500E-1,2.270925045E-1,6.026482582E-1
1.307204402E1,1.630053520E-1,3.248865604E-1,8.948841095E-1
1.308237402E1,-5.222797394E-2,4.278221130E-1,1.122607708E0
1.309195602E1,-2.469968796E-1,5.610771179E-1,1.346058369E0
1.310183902E1,-4.610137939E-1,6.891088486E-1,1.466732979E0
1.311203002E1,-5.994920731E-1,8.032686710E-1,1.515928745E0
1.312186002E1,-6.722521782E-1,9.008131027E-1,1.417243958E0
1.313219702E1,-5.847764015E-1,1.139107943E0,1.096048832E0
1.314180802E1,-4.287276268E-1,1.262969971E0,9.986290932E-1
1.315199302E1,-2.945346832E-1,1.391551495E0,8.919839859E-1
1.316191502E1,-2.593855858E-1,1.473860741E0,7.858920097E-1
1.317176702E1,-2.933053970E-1,1.612438440E0,7.828364372E-1
1.318183502E1,-3.378887177E-1,1.732746601E0,8.313841820E-1
1.319188502E1,-3.388156891E-1,1.824307203E0,9.633893967E-1
1.320269002E1,-2.752523422E-1,1.836413145E0,8.370399475E-1
1.321188702E1,-1.719613075E-1,1.837527752E0,6.546287537E-1
1.322175802E1,-8.648443222E-2,1.913858414E0,6.010646820E-1
1.323185902E1,-1.765294075E-1,2.099252701E0,9.298839569E-1
1.324181402E1,-4.255442619E-1,2.273094416E0,1.646852493E0
1.325191802E1,-8.132801056E-1,2.248553991E0,2.600747108E0
1.326199802E1,-1.540413380E0,2.079417706E0,3.820535660E0
1.327185902E1,-2.277525902E0,1.663099885E0,5.127671242E0
1.328183702E1,-2.872414112E0,1.161311269E0,6.144516945E0
1.329201002E1,-3.283101082E0,7.402808666E-1,6.867688179E0
1.330215802E1,-3.406958580E0,4.107230902E-1,6.869602203E0
1.331184502E1,-3.297089100E0,1.760585308E-1,6.212361336E0
1.332175002E1,-3.081817150E0,7.840406895E-2,5.199432373E0
1.333198002E1,-2.699813366E0,-7.692337036E-3,4.053901672E0
1.334683002E1,-2.207945347E0,-9.095954895E-2,3.103860855E0
1.336212702E1,-7.089457512E-1,-2.481091619E-1,1.392018318E0
1.337188202E1,2.080774307E-2,-3.432773948E-1,4.310379028E-1
1.338194402E1,6.807603836E-1,-4.189633727E-1,-5.004425049E-1
1.339200502E1,1.204570532E0,-4.626353979E-1,-1.253855228E0
1.340187502E1,1.626522303E0,-4.958587885E-1,-1.793254375E0
1.341200702E1,1.992259860E0,-4.881702662E-1,-2.083385468E0
1.342188002E1,2.168698788E0,-5.389564037E-1,-2.311959267E0
1.343186502E1,2.119059086E0,-5.722910166E-1,-2.378135681E0
1.344272302E1,1.851369739E0,-5.247613192E-1,-2.172656059E0
1.345193802E1,1.542613745E0,-5.712543726E-1,-2.009719372E0
1.346185502E1,1.188575268E0,-6.645660400E-1,-1.863501549E0
1.347192902E1,7.805044651E-1,-7.086904049E-1,-1.766408920E0
1.348222102E1,3.957486153E-1,-6.975189447E-1,-1.791150093E0
1.349422502E1,9.866571426E-2,-7.290157080E-1,-1.878989220E0
1.351196102E1,-3.044533730E-1,-7.524202466E-1,-2.160705566E0
1.352175302E1,-4.614815712E-1,-6.876909137E-1,-2.347040176E0
1.353219902E1,-5.433089733E-1,-6.326678991E-1,-2.521276474E0
1.354233802E1,-4.984531403E-1,-5.758171082E-1,-2.579052925E0
1.355188002E1,-3.108587265E-1,-4.894950390E-1,-2.537697792E0
1.356210002E1,-8.668899536E-3,-4.710475206E-1,-2.448981762E0
1.357184902E1,3.545389175E-1,-4.526357651E-1,-2.378882885E0
1.358208102E1,7.351648808E-1,-4.871536493E-1,-2.520682335E0
1.359188702E1,1.154128313E0,-6.036428213E-1,-2.832040787E0
1.360200002E1,1.390921474E0,-6.481231451E-1,-3.140965462E0
1.361185002E1,1.446026802E0,-5.839315653E-1,-3.493620872E0
1.362183402E1,1.440583229E0,-5.472966433E-1,-3.769536018E0
1.363222702E1,1.414790630E0,-4.928362370E-1,-3.978714466E0
1.364182602E1,1.380244493E0,-4.030762911E-1,-4.198538303E0
1.365187402E1,1.349925041E0,-2.746808529E-1,-4.315870762E0
1.366188002E1,1.323558331E0,-1.772445440E-1,-4.384857178E0
1.367199002E1,1.459342003E0,-6.210565567E-2,-4.375937462E0
1.368182702E1,1.464442968E0,7.728707790E-2,-4.008513451E0
1.369220402E1,1.482282043E0,2.014108896E-1,-3.629064083E0
1.370260902E1,1.479004979E0,2.754216194E-1,-3.202989101E0
1.371207202E1,1.485030770E0,3.715679646E-1,-2.667070389E0
1.372176702E1,1.458886147E0,5.333335400E-1,-2.062395573E0
1.373204302E1,1.461190224E0,7.266993523E-1,-1.370709896E0
1.374181702E1,1.444814920E0,9.775522947E-1,-6.767530441E-1
1.375217702E1,1.385371089E0,1.237077951E0,7.285881042E-2
1.376180802E1,1.342379212E0,1.428752184E0,5.698184967E-1
1.377177102E1,1.226032853E0,1.598919153E0,1.119963646E0
1.378183002E1,9.763014317E-1,1.834601760E0,1.615741730E0
1.379198102E1,6.515233517E-1,2.079397917E0,2.261953354E0
1.380180002E1,3.626701832E-1,2.232963324E0,2.599820137E0
1.381191602E1,1.298946142E-1,2.275859356E0,2.663912773E0
1.382177002E1,-5.621671677E-3,2.342665195E0,2.682256699E0
1.383204402E1,-8.930122852E-2,2.443871975E0,2.809903145E0
1.384182602E1,-1.873403788E-1,2.664258003E0,3.038533211E0
1.385195902E1,-2.398720980E-1,2.936153412E0,3.289712906E0
1.386231102E1,-9.901154041E-2,2.973578930E0,3.333248138E0
1.387236302E1,1.720874310E-1,2.802424908E0,3.330701828E0
1.388235502E1,3.821704388E-1,2.693699837E0,3.364567757E0
1.389249202E1,4.254748821E-1,2.633049965E0,3.282477379E0
1.390179802E1,4.236376286E-1,2.535754919E0,3.098443985E0
1.391313202E1,5.007990599E-1,2.349315166E0,3.010838509E0
1.392180802E1,6.233981848E-1,2.120606899E0,2.954120636E0
1.393191202E1,6.559108496E-1,1.973484039E0,3.050771713E0
1.394184702E1,6.178820133E-1,1.782668114E0,3.116035461E0
1.395187802E1,5.173746347E-1,1.590790272E0,2.949537277E0
1.396215602E1,2.558442354E-1,1.134706020E0,3.071409225E0
1.397217902E1,-1.746119261E-1,6.975009441E-1,3.404188156E0
1.398263202E1,-6.949617863E-1,3.852022886E-1,3.232424736E0
1.399205702E1,-1.139145494E0,-3.097283840E-2,2.933979034E0
1.400197402E1,-1.445263505E0,-4.694305062E-1,2.834404945E0
1.401185702E1,-1.856087923E0,-6.778349876E-1,2.478889465E0
1.402176202E1,-2.283885002E0,-6.661807299E-1,2.105994225E0
1.403265402E1,-2.489199638E0,-7.190861702E-1,1.581777573E0
1.404183802E1,-2.419904470E0,-9.754025936E-1,7.485151291E-1
1.405200602E1,-2.377109289E0,-1.201497674E0,-1.318950653E-1
1.406180502E1,-2.488712788E0,-1.299127817E0,-9.577350616E-1
1.407220602E1,-2.696300507E0,-1.265895128E0,-1.649132729E0
1.408215002E1,-2.910499573E0,-1.192086816E0,-2.171890259E0
1.409212702E1,-3.055531025E0,-1.118769169E0,-2.387619495E0
1.410193202E1,-3.011608124E0,-1.141150951E0,-2.319751740E0
1.411210802E1,-2.806779623E0,-1.202338696E0,-1.970979214E0
1.412179502E1,-2.496811628E0,-1.344935536E0,-1.636299133E0
1.413192602E1,-2.216195107E0,-1.504378319E0,-1.354383469E0
1.414188202E1,-2.007036924E0,-1.676607847E0,-1.083307266E0
1.415192102E1,-1.918593407E0,-1.840650678E0,-1.035420418E0
1.416187502E1,-1.958489656E0,-1.900514007E0,-1.023589134E0
1.417186602E1,-2.109040260E0,-1.932062626E0,-1.015635490E0
1.418180902E1,-2.197958708E0,-1.946515203E0,-9.273843765E-1
1.419199002E1,-2.181873798E0,-2.055454016E0,-1.064620018E0
1.420185302E1,-2.124296904E0,-2.185313702E0,-1.240692139E0
1.421187602E1,-2.129935741E0,-2.218369007E0,-1.356118202E0
1.422190202E1,-2.097558737E0,-2.175954819E0,-1.459775925E0
1.423198502E1,-1.920203447E0,-2.137732506E0,-1.592099190E0
1.424187002E1,-1.750149608E0,-2.036020279E0,-1.503533363E0
1.425200302E1,-1.670946121E0,-1.846034408E0,-1.351103783E0
1.426190302E1,-1.450915456E0,-1.645373583E0,-1.175707817E0
1.427184902E1,-1.045933127E0,-1.535699844E0,-1.128475189E0
1.428287402E1,-4.618816376E-1,-1.563965321E0,-9.951057434E-1
1.429193102E1,7.128858566E-2,-1.571769476E0,-9.124917984E-1
1.430180002E1,3.859151602E-1,-1.357481480E0,-5.514106750E-1
1.431196702E1,3.987191319E-1,-8.627132177E-1,-3.635911942E-1
1.432179002E1,7.145934701E-1,-7.959358692E-1,-8.755874634E-2
1.433281902E1,1.010918856E0,-8.093829155E-1,7.329750061E-2
1.434194302E1,5.523128510E-1,8.980512619E-3,-2.576341629E-1
1.435214602E1,1.011717796E0,-4.007062912E-1,9.146337509E-1
1.436212402E1,1.381838322E0,-7.416318655E-1,1.598967552E0
1.437188802E1,1.547780752E0,-7.367930412E-1,1.552803040E0
1.438182002E1,1.597721696E0,-6.258193254E-1,1.353801727E0
1.439206802E1,1.640863657E0,-5.632652044E-1,1.149936676E0
1.440181502E1,1.682899475E0,-4.759547710E-1,1.000639915E0
1.441227402E1,1.724210978E0,-3.323912621E-1,1.027966499E0
1.442217802E1,1.691697836E0,-1.419471502E-1,1.164348602E0
1.443198502E1,1.652830005E0,1.481368542E-1,1.330973625E0
1.444608602E1,1.629091024E0,4.649050236E-1,1.575803757E0
1.446182502E1,1.651598215E0,9.833458662E-1,1.867041588E0
1.447188602E1,1.758931875E0,1.057792544E0,1.790587425E0
1.448184602E1,1.771577001E0,1.009537458E0,1.598835945E0
1.449204802E1,1.674551249E0,9.950395823E-1,1.299880028E0
1.450184102E1,1.514843941E0,9.501737356E-1,8.989162445E-1
1.451202302E1,1.418177843E0,8.588119745E-1,6.896915436E-1
1.452179402E1,1.276299119E0,8.113805056E-1,8.208789825E-1
1.453228302E1,1.084405661E0,9.258524179E-1,1.241309166E0
1.454554102E1,9.936419725E-1,9.647834301E-1,1.826898575E0
1.456190202E1,8.948063850E-1,1.148924470E0,4.421212196E0
1.457194902E1,1.275486708E0,9.041416645E-1,5.577188492E0
1.458198102E1,1.994455457E0,3.088425994E-1,6.386076927E0
1.459513402E1,2.533110142E0,-4.586511850E-1,6.125148773E0
1.461189202E1,2.317494631E0,-6.253718734E-1,5.158463478E0
1.462256702E1,1.843773961E0,-6.189193726E-1,4.225818634E0
1.463187602E1,1.448088288E0,-6.691664457E-1,3.184028625E0
1.464218302E1,1.255078435E0,-7.239060402E-1,2.310923576E0
1.465209702E1,1.201381683E0,-6.929764748E-1,1.733412743E0
1.466185202E1,1.329320192E0,-5.644021034E-1,1.146396637E0
1.467186702E1,1.563541055E0,-5.062664747E-1,3.041687012E-1
1.468186202E1,1.915808797E0,-5.261496305E-1,-5.911254883E-1
1.469187602E1,2.316785812E0,-5.732532740E-1,-1.262951851E0
1.470199202E1,2.660746098E0,-6.352283955E-1,-1.697052002E0
1.471278702E1,2.687469482E0,-5.175269246E-1,-2.283588886E0
1.472177702E1,2.734734297E0,-5.267245770E-1,-2.278789997E0
1.473193902E1,2.447838783E0,-4.111483395E-1,-2.620009422E0
1.474489502E1,1.492015600E0,-1.967953742E-1,-3.207379818E0
1.476198202E1,7.936730385E-1,-8.227002621E-2,-3.425456524E0
1.477176202E1,6.196009517E-1,-1.217405200E-1,-3.672778130E0
1.478230402E1,4.688241482E-1,-1.618555188E-1,-3.770522594E0
1.479195102E1,3.598533273E-1,-1.623446345E-1,-3.771940231E0
1.480180902E1,2.460771799E-1,-1.713776588E-1,-3.731615067E0
1.481186102E1,1.786262989E-1,-2.377724648E-1,-3.790912151E0
1.482204802E1,1.511284113E-1,-2.469348013E-1,-3.607434273E0
1.483186602E1,9.605741501E-2,-1.962634325E-1,-3.312502384E0
1.484213102E1,-3.145527840E-2,-1.672823727E-1,-3.164972305E0
1.485188002E1,-1.588524580E-1,-1.486899853E-1,-3.000759602E0
1.486193202E1,-1.997057199E-1,-1.484687924E-1,-2.790905952E0
1.487199602E1,-2.743895054E-1,-1.860864758E-1,-2.534603596E0
1.488276502E1,-3.033578396E-1,-1.897183359E-1,-2.330234051E0
1.489207902E1,-2.964816093E-1,-1.926408410E-1,-2.181265354E0
1.490184302E1,-3.117147684E-1,-1.106663942E-1,-2.032653809E0
1.491189002E1,-4.494445324E-1,1.309996247E-1,-1.848935604E0
1.492193802E1,-6.096086502E-1,4.531073570E-1,-1.452033043E0
1.493195702E1,-6.007940769E-1,6.184611320E-1,-1.066488266E0
1.494184002E1,-3.496007919E-1,5.527994633E-1,-8.118515015E-1
1.495191202E1,-9.840273857E-2,4.542605877E-1,-6.645765305E-1
1.496193802E1,4.272460938E-4,4.786462188E-1,-5.307369232E-1
1.497231702E1,-4.040384293E-2,5.850289464E-1,-3.780660629E-1
1.498185702E1,-1.723055840E-1,7.624564767E-1,-1.762027740E-1
1.499193902E1,-3.348853588E-1,9.140655398E-1,1.246032715E-1
1.500189102E1,-4.505770206E-1,9.687046409E-1,4.497394562E-1
1.501199602E1,-6.031875610E-1,1.030248046E0,8.429527283E-1
1.502302302E1,-6.796641350E-1,1.200536013E0,1.254909515E0
1.503202802E1,-8.569786549E-1,1.389104128E0,1.700010300E0
1.504189502E1,-1.069036007E0,1.557823896E0,2.262273788E0
1.505197602E1,-1.218012333E0,1.775297999E0,2.868484497E0
1.506184002E1,-1.303466082E0,1.954535246E0,3.246696472E0
1.507192002E1,-1.473496914E0,2.169905663E0,3.542987823E0
1.508209902E1,-1.609192610E0,2.382455826E0,3.788686752E0
1.509208502E1,-1.542406559E0,2.358267069E0,3.787489891E0
1.510183402E1,-1.321126699E0,2.163020611E0,3.303756714E0
1.511190802E1,-8.707234859E-1,1.740631580E0,2.825927734E0
1.512190802E1,-6.164526939E-1,1.456528187E0,2.219754219E0
1.513202302E1,-6.056036949E-1,1.386290669E0,1.924380302E0
1.514371502E1,-7.209148407E-1,1.226407290E0,2.147077560E0
1.515196002E1,-8.019504547E-1,1.014908552E0,1.721639633E0
1.516183802E1,-7.884979248E-1,7.279146910E-1,1.306083679E0
1.517199402E1,-7.972784042E-1,3.390988111E-1,1.413345337E0
1.518223302E1,-9.212145805E-1,-4.471719265E-2,1.624240875E0
1.519202002E1,-1.143264532E0,-4.911809564E-1,2.020718575E0
1.520183402E1,-1.378658533E0,-9.340551496E-1,2.439755440E0
1.521276902E1,-1.616401672E0,-1.407762766E0,2.887425423E0
1.522197402E1,-1.978945732E0,-1.801341295E0,3.279202461E0
1.523212602E1,-2.317003727E0,-2.019769192E0,3.516663551E0
1.524274002E1,-2.549538136E0,-2.281945229E0,3.043683052E0
1.525195202E1,-2.600056410E0,-2.258378506E0,3.021238327E0
1.526208502E1,-2.453510284E0,-2.291761875E0,2.428090096E0
1.527381902E1,-1.587319851E0,-2.219402313E0,1.029970169E0
1.528185402E1,-1.020621777E0,-2.280191422E0,2.945871353E-1
1.529218702E1,-4.858665466E-1,-2.072349072E0,-3.864240646E-1
1.530189002E1,-4.728341103E-2,-1.949754953E0,-9.681854248E-1
1.531213302E1,2.563664913E-1,-1.870950580E0,-1.457041740E0
1.532194602E1,4.036257267E-1,-1.815928340E0,-1.785223484E0
1.533191202E1,3.475632668E-1,-1.697389364E0,-2.119195938E0
1.534188002E1,1.462342739E-1,-1.534278512E0,-2.305499077E0
1.535206002E1,-4.281592369E-2,-1.463093758E0,-2.625680447E0
1.536186502E1,-2.333321571E-1,-1.471918106E0,-2.930895329E0
1.537204702E1,-4.647095203E-1,-1.385681391E0,-3.166491508E0
1.538203802E1,-6.963901520E-1,-1.268362164E0,-3.280344963E0
1.539189902E1,-8.452608585E-1,-1.183849812E0,-3.211909771E0
1.540182902E1,-9.004857540E-1,-1.126765490E0,-3.111676216E0
1.541190402E1,-8.784523010E-1,-1.074772120E0,-3.008476734E0
1.542189302E1,-7.516767979E-1,-1.046893716E0,-2.993111610E0
1.543208502E1,-5.930666924E-1,-1.037279487E0,-3.032541275E0
1.544188002E1,-5.038080215E-1,-9.963023663E-1,-3.146195889E0
1.545188202E1,-4.352803230E-1,-8.400251865E-1,-3.167037010E0
1.546214502E1,-3.160007000E-1,-7.511479855E-1,-3.083781242E0
1.547183102E1,-2.373914719E-1,-7.017586827E-1,-2.902187824E0
1.548181602E1,-2.067708969E-1,-5.979769826E-1,-2.788571358E0
1.549211802E1,-2.053813934E-1,-5.110640526E-1,-2.813177586E0
1.550180502E1,-2.409968376E-1,-4.332289696E-1,-2.868975639E0
1.551186902E1,-2.520477772E-1,-3.229334354E-1,-2.975323677E0
1.552185202E1,-2.209246159E-1,-2.439477444E-1,-2.977296352E0
1.553209702E1,-1.605699062E-1,-1.274945736E-1,-2.882061005E0
1.554199702E1,-1.145257950E-1,-2.485597134E-2,-2.719847202E0
1.555192502E1,-8.875155449E-2,3.443479538E-2,-2.407110214E0
1.556185502E1,-1.344230175E-1,7.292485237E-2,-2.070802689E0
1.557187802E1,-2.202684879E-1,1.480931044E-1,-1.599737644E0
1.558199402E1,-3.019247055E-1,2.328989506E-1,-9.751195908E-1
1.559199202E1,-3.233611584E-1,3.056079149E-1,-2.068004608E-1
1.560176502E1,-2.624254227E-1,3.742855787E-1,5.894050598E-1
1.561187002E1,-2.073905468E-1,4.085992575E-1,1.361427307E0
1.562194002E1,-8.564591408E-2,4.676486254E-1,2.198704720E0
1.563235002E1,1.253278255E-1,5.078932047E-1,2.844390869E0
1.564187702E1,4.433587790E-1,4.802250862E-1,3.266262054E0
1.565225802E1,7.510744333E-1,5.144604445E-1,3.422696114E0
1.566205402E1,1.022338510E0,5.580366850E-1,3.427007675E0
1.567222402E1,1.244842768E0,5.965039730E-1,3.375825882E0
1.568185502E1,1.374752283E0,5.795617104E-1,3.187566757E0
1.569197402E1,1.384432793E0,5.492814779E-1,2.943437576E0
1.570183202E1,1.277522802E0,4.847737551E-1,2.691446304E0
1.571405602E1,8.350939155E-1,4.244028330E-1,2.116571426E0
1.572700452E1,7.370881438E-1,3.469169140E-1,2.108099937E0
1.574196302E1,8.370124698E-1,2.402122021E-1,2.224152565E0
1.575200702E1,9.880427718E-1,6.864798069E-2,2.215724945E0
1.576277502E1,1.145338774E0,-4.805159569E-2,2.193736076E0
1.577215602E1,1.179417014E0,-1.229512691E-1,2.116342545E0
1.578230402E1,1.057078123E0,-1.660934687E-1,2.146195412E0
1.579190902E1,8.296594620E-1,-1.780153513E-1,2.303625107E0
1.580182502E1,5.710197687E-1,-2.649328709E-1,2.560491562E0
1.581201302E1,3.050760031E-1,-4.296108484E-1,3.000316620E0
1.582177302E1,-2.383004427E-1,-8.489572406E-1,4.293893814E0
1.583292502E1,-3.079668283E-1,-9.792993069E-1,5.047652245E0
1.584184902E1,-2.747906446E-1,-1.044457078E0,5.323596001E0
1.585195602E1,-2.531030178E-1,-1.050674319E0,5.083193779E0
1.586186902E1,-2.275888920E-1,-1.031961560E0,4.450788498E0
1.587213402E1,-1.319863796E-1,-1.009380817E0,3.657559395E0
1.588249002E1,2.627789974E-2,-8.953958750E-1,2.829964638E0
1.589188402E1,3.034460545E-1,-7.823995352E-1,2.056389809E0
1.590182402E1,7.581167221E-1,-6.886038780E-1,1.301875114E0
1.591243002E1,1.314480662E0,-6.616742015E-1,6.390342712E-1
1.592185902E1,1.879247665E0,-6.460673809E-1,-1.789379120E-2
1.593237302E1,2.332931042E0,-6.482220888E-1,-6.788454056E-1
1.594182102E1,2.693249702E0,-6.538938880E-1,-1.301061630E0
1.595218602E1,2.839812756E0,-6.700465679E-1,-1.792531490E0
1.596371902E1,2.826880455E0,-6.802929044E-1,-2.033489704E0
1.597190102E1,2.588068962E0,-7.443832755E-1,-2.292146683E0
1.598183302E1,2.111166477E0,-8.784902096E-1,-2.496688366E0
1.599186002E1,1.548969388E0,-9.786065221E-1,-2.584854126E0
1.600180302E1,9.883887768E-1,-1.000892401E0,-2.767835140E0
1.601301002E1,4.776307940E-1,-9.694365859E-1,-2.873974323E0
1.602178402E1,1.067938805E-1,-9.073086977E-1,-2.847064018E0
1.603191702E1,-1.198972464E-1,-8.102016449E-1,-2.809298038E0
1.604203102E1,-1.746082306E-1,-6.926773787E-1,-2.772800922E0
1.605207502E1,-6.079554558E-3,-6.277546883E-1,-2.777952194E0
1.606185002E1,2.806154490E-1,-5.809332132E-1,-2.803604603E0
1.607188102E1,6.046528816E-1,-5.587635040E-1,-2.840184689E0
1.608198602E1,8.659648299E-1,-5.510373116E-1,-2.951113224E0
1.609190002E1,9.990726113E-1,-5.203673840E-1,-3.084767818E0
1.610183602E1,1.056237817E0,-4.651509523E-1,-3.324698925E0
1.611190402E1,1.121931314E0,-4.865741730E-1,-3.629005432E0
1.612287302E1,1.170052409E0,-5.416011810E-1,-3.830863476E0
1.613189002E1,1.104478836E0,-5.086989403E-1,-3.959798813E0
1.614183002E1,9.692999125E-1,-4.107059240E-1,-4.015462875E0
1.615178302E1,8.515585661E-1,-3.724579811E-1,-3.952469349E0
1.616184302E1,7.325382829E-1,-3.180185556E-1,-3.806559086E0
1.617211902E1,5.851166248E-1,-2.199261189E-1,-3.598245144E0
1.618184702E1,4.841910601E-1,-1.275579929E-1,-3.296949387E0
1.619192202E1,3.907090425E-1,-5.979394913E-2,-2.953927517E0
1.620190902E1,3.162336349E-1,9.263038635E-3,-2.594335556E0
1.621193802E1,2.301905155E-1,6.702923775E-2,-2.083848000E0
1.622199902E1,2.196829319E-1,1.198165417E-1,-1.582454681E0
1.623238602E1,2.744386196E-1,9.979891777E-2,-1.167604446E0
1.624312202E1,2.807898521E-1,9.726285934E-2,-6.592378616E-1
1.625200202E1,2.711719275E-1,9.834599495E-2,-1.665611267E-1
1.626188202E1,3.146978617E-1,6.174039841E-2,3.520078659E-1
1.627198902E1,3.545945883E-1,4.108166695E-2,9.489040375E-1
1.628208902E1,3.678658009E-1,1.075680256E-1,1.539324760E0
1.629189002E1,3.876047134E-1,1.737061739E-1,2.110680580E0
1.630184202E1,3.705104589E-1,2.610515356E-1,2.662055969E0
1.631179702E1,3.778585792E-1,4.394949675E-1,3.222290993E0
1.632178502E1,4.306685925E-1,7.169822454E-1,3.823935509E0
1.633195602E1,6.107960343E-1,9.384963512E-1,4.127279282E0
1.634195602E1,9.064708948E-1,9.669042826E-1,4.245541573E0
1.635193102E1,1.321333766E0,1.167709708E0,4.100307465E0
1.636188402E1,1.346874356E0,1.241610527E0,3.780817986E0
1.637185902E1,1.312668324E0,1.309496641E0,3.561891556E0
1.638179602E1,1.216085434E0,1.354792356E0,3.147377968E0
1.639221402E1,1.111929893E0,1.296291232E0,2.604991913E0
1.640174302E1,9.611995220E-1,1.241095662E0,2.123623848E0
1.641193902E1,6.435333490E-1,1.234628439E0,1.485598564E0
1.642496502E1,5.812488198E-1,9.598094225E-1,1.759585381E0
1.644186102E1,1.173858643E-1,5.293955803E-1,1.986046791E0
1.645201602E1,-2.385520935E-2,1.165086031E-1,2.824134827E0
1.646184902E1,-9.005904198E-2,-3.291076422E-1,4.021605492E0
1.647262002E1,-5.340157747E-1,-5.591764450E-1,4.426632881E0
1.648180602E1,-9.702599049E-1,-7.681401968E-1,4.638180733E0
1.649198702E1,-1.354601622E0,-1.025158167E0,4.540957451E0
1.650185402E1,-1.758723736E0,-1.297253013E0,3.916068077E0
1.651207402E1,-2.168004274E0,-1.489760876E0,3.124980927E0
1.652302102E1,-2.604073524E0,-1.545959949E0,2.413216591E0
1.653200502E1,-2.999024153E0,-1.515143156E0,1.839008331E0
1.654185802E1,-3.150460482E0,-1.476620913E0,1.356489182E0
1.655190902E1,-3.098987341E0,-1.328500628E0,9.476728439E-1
1.656187902E1,-2.775071144E0,-1.129276037E0,5.278940201E-1
1.657193502E1,-2.064986229E0,-1.099642754E0,9.552955627E-2
1.658189802E1,-1.198451638E0,-1.131507158E0,-4.161758423E-1
1.659185702E1,-5.155524015E-1,-1.126069069E0,-8.741598129E-1
1.660193302E1,-9.238395095E-2,-1.029908776E0,-1.227056503E0
1.661191902E1,1.202259287E-1,-9.515675306E-1,-1.556135178E0
1.662187202E1,2.071514279E-1,-9.104375839E-1,-1.882270813E0
1.663194202E1,1.942042112E-1,-9.114702940E-1,-2.163315296E0
1.664301902E1,5.469620228E-4,-9.498499632E-1,-2.382521629E0
1.665196002E1,-3.442714214E-1,-9.286752939E-1,-2.533884048E0
1.666192502E1,-6.787627935E-1,-8.558385968E-1,-2.710858345E0
1.667191702E1,-8.817763329E-1,-8.817721009E-1,-2.880702019E0
1.668183102E1,-1.018898129E0,-9.407491088E-1,-2.854427338E0
1.669200102E1,-1.147560716E0,-9.091487527E-1,-2.887339115E0
1.670214802E1,-1.278340459E0,-8.035248518E-1,-2.832653046E0
1.671193902E1,-1.366219759E0,-6.474434733E-1,-2.783444405E0
1.672182502E1,-1.316116452E0,-5.533782244E-1,-2.744569302E0
1.673210602E1,-1.185325384E0,-5.433113575E-1,-2.650337696E0
1.674182802E1,-1.007588744E0,-5.351274014E-1,-2.525968075E0
1.675213602E1,-8.393757939E-1,-4.951408505E-1,-2.562517166E0
1.676180602E1,-6.175676584E-1,-4.738005996E-1,-2.378844261E0
1.677186902E1,-3.891629577E-1,-4.054329395E-1,-2.196275234E0
1.678219602E1,-3.323892951E-1,-4.065519571E-1,-2.237571716E0
1.679198302E1,-3.592391014E-1,-3.829950094E-1,-2.157524109E0
1.680272502E1,-4.714277983E-1,-3.006014824E-1,-2.158731461E0
1.681190002E1,-5.840648413E-1,-2.580776215E-1,-2.058144569E0
1.682185002E1,-6.335014105E-1,-1.987656355E-1,-1.805567265E0
1.683197102E1,-6.096857786E-1,-7.107484341E-2,-1.512454033E0
1.684199502E1,-4.200795889E-1,-1.001262665E-2,-1.017522812E0
1.685189902E1,-8.791255951E-2,-9.796261787E-2,-5.024070740E-1
1.686187902E1,1.941564679E-1,-1.715857983E-1,9.277534485E-2
1.687199902E1,4.039241076E-1,-1.495068073E-1,6.280174255E-1
1.688178302E1,6.006367803E-1,-1.582281590E-1,9.879379272E-1
1.689216702E1,9.406821728E-1,-2.858954668E-1,1.351193428E0
1.690185602E1,8.835711479E-1,-2.761685848E-1,1.553380966E0
1.691178502E1,7.653294802E-1,-1.974889040E-1,1.775484085E0
1.692237302E1,6.522334218E-1,-1.635278463E-1,1.996970177E0
1.693196102E1,5.525765419E-1,-1.589051485E-1,2.323069572E0
1.694185002E1,4.316300452E-1,-1.043653488E-1,2.644442558E0
1.695184602E1,3.311855197E-1,-5.153059959E-2,2.861536026E0
1.696270402E1,2.787559032E-1,-3.018569946E-2,2.981641769E0
1.697196702E1,2.547127604E-1,2.328228951E-2,3.052957535E0
1.698208102E1,2.711614668E-1,6.199526787E-2,3.043223381E0
1.699194302E1,3.422176838E-1,1.897287369E-2,2.909225464E0
1.700181402E1,4.695674777E-1,-6.775927544E-2,2.932362556E0
1.701193302E1,5.351591706E-1,-1.179401875E-1,2.905648232E0
1.702251602E1,5.652213693E-1,-2.614368200E-1,2.953758240E0
1.703189302E1,6.465655565E-1,-4.023916721E-1,3.213645935E0
1.704180502E1,6.892529726E-1,-4.666030407E-1,3.453684807E0
1.705179802E1,7.420161366E-1,-5.822561979E-1,3.797849655E0
1.706185202E1,8.606845737E-1,-7.626283169E-1,4.093742371E0
1.707188902E1,9.954860210E-1,-1.053010821E0,4.200043678E0
1.708176402E1,1.096866846E0,-1.381680727E0,4.154726982E0
1.709196102E1,1.053035975E0,-1.626729488E0,4.038462639E0
1.710233502E1,8.158543110E-1,-1.680462718E0,3.644950867E0
1.711189402E1,6.410775185E-1,-1.724755406E0,3.060765266E0
1.712239202E1,4.567418098E-1,-1.720377207E0,2.523031235E0
1.713265002E1,5.004787445E-1,-1.730309606E0,1.994457245E0
1.714185302E1,7.783365846E-1,-1.753486872E0,1.566808701E0
1.715203602E1,1.159397125E0,-1.788421869E0,1.024914742E0
1.716187302E1,1.525792718E0,-1.798065424E0,3.989067078E-1
1.717189102E1,1.861072183E0,-1.731320739E0,-7.556629181E-2
1.718188902E1,2.073882818E0,-1.621447802E0,-5.663347244E-1
1.719213002E1,2.161275864E0,-1.498354435E0,-1.193233490E0
1.720203802E1,2.149651289E0,-1.418142796E0,-1.865896702E0
1.721227002E1,2.060544252E0,-1.398698926E0,-2.435706615E0
1.722183102E1,1.867337942E0,-1.340806007E0,-2.974618912E0
1.723246402E1,1.611762047E0,-1.304101825E0,-3.424525261E0
1.724204002E1,1.307882071E0,-1.280963898E0,-3.771309376E0
1.725291502E1,1.043946743E0,-1.283447385E0,-4.016409874E0
1.726236902E1,8.249437213E-1,-1.299275041E0,-4.125010490E0
1.727188302E1,6.591981649E-1,-1.308559775E0,-4.175448895E0
1.728181502E1,5.265942216E-1,-1.319759965E0,-4.177712917E0
1.729199502E1,4.049674571E-1,-1.275192976E0,-4.114050388E0
1.730178802E1,2.529176176E-1,-1.178175569E0,-3.906761646E0
1.731193202E1,8.812791109E-2,-1.067434311E0,-3.439313889E0
1.732186202E1,-8.305290341E-2,-9.532499313E-1,-2.786213398E0
1.733187402E1,-1.782999486E-1,-8.484158516E-1,-2.217126846E0
1.734490602E1,1.204070449E-2,-8.178594112E-1,-1.181206703E0
1.736187002E1,1.409706175E-1,-8.713886738E-1,-1.104298592E0
1.737184902E1,2.765219808E-1,-9.106423855E-1,-1.059818268E0
1.738182802E1,2.344903648E-1,-8.606648445E-1,-1.083578110E0
1.739201402E1,4.817715287E-2,-6.696193218E-1,-1.172204018E0
1.740181302E1,-1.302848160E-1,-4.717257023E-1,-1.355446339E0
1.741183202E1,-2.405032814E-1,-3.250434399E-1,-1.641888618E0
1.742178202E1,-2.594688237E-1,-1.876783371E-1,-1.845637321E0
1.743218402E1,-1.367361844E-1,1.756367683E-1,-1.569251537E0
1.744185502E1,1.840295494E-1,1.511819363E-1,-1.123132706E0
1.745182802E1,4.943449497E-1,7.609462738E-2,-6.481428146E-1
1.746201502E1,6.729215384E-1,1.032106876E-1,-3.169326782E-1
1.747187202E1,8.228055835E-1,1.076009274E-1,-1.659994125E-1
1.748179302E1,9.733085632E-1,9.608602524E-2,-1.340951920E-1
1.749188702E1,1.000986934E0,1.033959389E-1,-3.188877106E-1
1.750194602E1,8.369277716E-1,1.071095467E-1,-4.750280380E-1
1.751219702E1,6.445095539E-1,1.537270546E-1,-5.873661041E-1
1.752196802E1,3.036626279E-1,1.931476593E-1,-7.392759323E-1
1.753180402E1,-7.491230965E-3,2.355823517E-1,-7.956943512E-1
1.754181002E1,-2.780636251E-1,2.349462509E-1,-7.703990936E-1
1.755189202E1,-3.813898563E-1,1.986112595E-1,-6.672801971E-1
1.756226702E1,-3.686753511E-1,1.514263153E-1,-4.548368454E-1
1.757187302E1,-2.800372839E-1,2.454431057E-1,-2.326259613E-1
1.758190102E1,-5.863076448E-2,4.226772785E-1,-9.803771973E-4
1.759187402E1,2.289118171E-1,5.716145039E-1,2.927417755E-1
1.760185902E1,5.359820127E-1,6.955826283E-1,5.849199295E-1
1.761263202E1,7.626973391E-1,8.635499477E-1,7.964286804E-1
1.762221902E1,8.979879618E-1,9.907965660E-1,8.519630432E-1
1.763205202E1,9.084949493E-1,1.074141264E0,8.832044601E-1
1.764183302E1,7.673624754E-1,1.106218100E0,8.439044952E-1
1.765186102E1,5.085233450E-1,1.143293619E0,7.152633667E-1
1.766184602E1,1.954387426E-1,1.135210514E0,5.434322357E-1
1.767189602E1,-9.239012003E-2,1.076015949E0,3.257312775E-1
1.768247202E1,-3.491954207E-1,9.815173149E-1,1.479272842E-1
1.769196302E1,-6.162123084E-1,8.935711384E-1,2.173776627E-1
1.770192702E1,-8.638225794E-1,8.182423115E-1,6.338815689E-1
1.771274502E1,-9.060434103E-1,6.516320705E-1,1.351410866E0
1.772179702E1,-7.470344901E-1,4.085147381E-1,2.262733459E0
1.773265802E1,-4.598381221E-1,1.260006428E-1,3.159069061E0
1.774182302E1,-1.560213268E-1,-7.694697380E-2,3.908658981E0
1.775198502E1,8.057120442E-2,-2.745022774E-1,4.505717278E0
1.776181902E1,1.824476719E-1,-4.829416275E-1,4.771912575E0
1.777176402E1,6.267011166E-2,-6.730117798E-1,4.804962158E0
1.778253202E1,-2.245610654E-1,-8.988811970E-1,4.617830276E0
1.779198802E1,-5.870667696E-1,-1.112289190E0,4.168308258E0
1.780187502E1,-9.914602041E-1,-1.314287663E0,3.609912872E0
1.781189802E1,-1.334907055E0,-1.432128429E0,3.043446541E0
1.782186502E1,-1.585939288E0,-1.444302082E0,2.466020584E0
1.783253602E1,-1.771536112E0,-1.362138510E0,1.945875168E0
1.784192702E1,-1.822398901E0,-1.297023773E0,1.494592667E0
1.785195302E1,-1.744012833E0,-1.351515532E0,1.106669426E0
1.786183102E1,-1.567416787E0,-1.476194143E0,7.796621323E-1
1.787210102E1,-1.445114255E0,-1.532120109E0,4.587030411E-1
1.788207602E1,-1.343762159E0,-1.503338337E0,1.746215820E-1
1.789193802E1,-1.167205930E0,-1.458848000E0,-3.267383575E-2
1.790283202E1,-9.174935222E-1,-1.477892399E0,-1.802568436E-1
1.791201002E1,-6.955927610E-1,-1.512427092E0,-3.235635757E-1
1.792185902E1,-5.699256659E-1,-1.540884495E0,-4.104557037E-1
1.793187902E1,-5.649545789E-1,-1.527246952E0,-5.398426056E-1
1.794265302E1,-6.319732666E-1,-1.516413927E0,-6.847181320E-1
1.795213502E1,-9.812451005E-1,-1.500865936E0,-6.968402863E-1
1.796182902E1,-9.658531547E-1,-1.465220928E0,-7.101659775E-1
1.797186402E1,-1.328858972E0,-1.416850090E0,-7.815465927E-1
1.798180902E1,-1.377670407E0,-1.375842571E0,-8.395872116E-1
1.799207102E1,-1.365313530E0,-1.360364318E0,-9.724712372E-1
1.800218802E1,-1.314982891E0,-1.373770833E0,-1.167352676E0
1.801195002E1,-1.311437130E0,-1.352710128E0,-1.272076130E0
1.802298302E1,-1.311540246E0,-1.273365736E0,-1.459043980E0
1.803208102E1,-1.283366203E0,-1.184368849E0,-1.718097687E0
1.804186102E1,-1.185343027E0,-1.093691826E0,-1.952495575E0
1.805194302E1,-1.083838344E0,-1.024175882E0,-2.096401691E0
1.806181402E1,-9.641421437E-1,-9.463882446E-1,-2.188785553E0
1.807201102E1,-8.884685636E-1,-9.187602997E-1,-2.215755463E0
1.808197702E1,-8.937672377E-1,-9.192109108E-1,-2.169051647E0
1.809226302E1,-9.849045277E-1,-8.652994633E-1,-2.189830303E0
1.810189402E1,-1.091384649E0,-7.895069122E-1,-2.151144505E0
1.811192202E1,-1.175402284E0,-7.472381592E-1,-2.010965824E0
1.812233802E1,-1.212287188E0,-6.662032604E-1,-1.742740154E0
1.813203702E1,-1.166726947E0,-5.735681057E-1,-1.591685295E0
1.814362402E1,-1.142830372E0,-5.475678444E-1,-1.485502720E0
1.815224302E1,-1.082604289E0,-5.470287800E-1,-1.354321957E0
1.816374002E1,-1.072369337E0,-4.599888325E-1,-1.332370281E0
1.817211902E1,-1.081946135E0,-3.678121567E-1,-1.375465870E0
1.818186902E1,-1.041941762E0,-3.211891651E-1,-1.270417213E0
1.819208802E1,-9.701466560E-1,-2.142138481E-1,-1.056747437E0
1.820179702E1,-7.990751266E-1,-1.739618778E-1,-8.526010513E-1
1.821192102E1,-5.857334733E-1,-1.778833866E-1,-5.805330276E-1
1.822180102E1,-3.882715702E-1,-1.416225433E-1,-3.292798996E-1
1.823202702E1,-2.365877330E-1,-1.064519882E-1,-8.220863342E-2
1.824205202E1,-1.430278420E-1,-8.411240578E-2,1.703443527E-1
1.825208102E1,-1.449427307E-1,-3.530144691E-2,5.044488907E-1
1.826184202E1,-2.004326880E-1,3.206443787E-2,9.283866882E-1
1.827181902E1,-2.868858576E-1,1.041371822E-1,1.363386154E0
1.828560002E1,-3.675307333E-1,1.757957935E-1,1.767965317E0
1.830181402E1,-4.808924794E-1,3.199353218E-1,2.502467155E0
1.831187702E1,-5.025354028E-1,2.985477448E-1,2.643336296E0
1.832185702E1,-4.755879045E-1,2.474353313E-1,2.661744118E0
1.833206402E1,-3.922203481E-1,2.272794247E-1,2.672068596E0
1.834193802E1,-3.485242426E-1,2.330033779E-1,2.663637161E0
1.835209102E1,-3.587444723E-1,2.850492001E-1,2.590943336E0
1.836183302E1,-3.559916615E-1,2.990987301E-1,2.396359444E0
1.837185102E1,-2.936564684E-1,2.876121998E-1,2.176763535E0
1.838183402E1,-2.640815675E-1,3.203716278E-1,1.964201927E0
1.839206502E1,-1.602332592E-1,3.472115993E-1,1.806565285E0
1.840194902E1,6.934460998E-2,3.010070324E-1,1.662464142E0
1.841224202E1,2.820036411E-1,2.328014374E-1,1.541549683E0
1.842188002E1,3.738617897E-1,2.066488266E-1,1.492175102E0
1.843185402E1,3.477137983E-1,2.674643993E-1,1.588992119E0
1.844185602E1,2.700904608E-1,3.467431068E-1,1.855279922E0
1.845218102E1,2.987101376E-1,3.323349953E-1,2.240018845E0
1.846273002E1,4.581013620E-1,-1.222646236E-1,3.317349434E0
1.847187102E1,4.119825661E-1,-6.079649925E-2,3.295300484E0
1.848205102E1,3.608989418E-1,-3.410041332E-1,3.758368492E0
1.849190002E1,1.740438938E-1,-5.543174744E-1,4.033432007E0
1.850178902E1,-3.663322330E-2,-6.980195045E-1,3.633584023E0
1.851273202E1,-3.417539597E-2,-1.135682225E0,3.221232414E0
1.852186702E1,4.925021529E-2,-1.253348351E0,2.662448883E0
1.853194202E1,1.442568600E-1,-1.254124880E0,2.074424744E0
1.854185302E1,2.909877300E-1,-1.243535042E0,1.479422569E0
1.855188702E1,5.124467611E-1,-1.282197237E0,7.586832047E-1
1.856196802E1,8.250950575E-1,-1.417793870E0,1.467199326E-1
1.857196102E1,1.119233370E0,-1.570302725E0,-3.103542328E-1
1.858184502E1,1.368804812E0,-1.680645227E0,-6.563339233E-1
1.859204502E1,1.561593652E0,-1.758404016E0,-9.867572784E-1
1.860187902E1,1.689490080E0,-1.808745742E0,-1.276212692E0
1.861190702E1,1.713853002E0,-1.781768322E0,-1.456971169E0
1.862275102E1,1.617359400E0,-1.729290485E0,-1.598500729E0
1.863194602E1,1.492832422E0,-1.723022699E0,-1.654733658E0
1.864180902E1,1.273320436E0,-1.691284060E0,-1.781656265E0
1.865189602E1,9.772279859E-1,-1.626041412E0,-1.876287937E0
1.866182202E1,6.547725201E-1,-1.611829281E0,-1.943886280E0
1.867177202E1,3.299265802E-1,-1.680797696E0,-2.043230534E0
1.868209802E1,-6.945967674E-3,-1.544764042E0,-1.870320797E0
1.869188802E1,-2.073403597E-1,-1.476908803E0,-1.897840500E0
1.870194402E1,-2.340472937E-1,-1.505551577E0,-1.959029198E0
1.871254902E1,-1.997537017E-1,-1.461211562E0,-1.929693222E0
1.872178702E1,-1.166825294E-1,-1.325956464E0,-1.902318954E0
1.873191802E1,9.798943996E-3,-1.171694875E0,-1.855623722E0
1.874184002E1,1.735392213E-1,-1.049085855E0,-1.816761494E0
1.875186702E1,2.749987841E-1,-9.481861591E-1,-1.803094387E0
1.876186902E1,3.287776709E-1,-8.321943283E-1,-1.746757984E0
1.877182402E1,3.320651054E-1,-7.062339783E-1,-1.710473537E0
1.878256202E1,2.936219573E-1,-5.911574364E-1,-1.738488674E0
1.879192902E1,2.695742846E-1,-5.249719620E-1,-1.691815853E0
1.880176502E1,2.627481222E-1,-4.980483055E-1,-1.641457558E0
1.881191702E1,2.658385038E-1,-4.939832687E-1,-1.684535027E0
1.882184302E1,3.120627403E-1,-4.830005169E-1,-1.724973679E0
1.883190002E1,3.099422455E-1,-4.381990433E-1,-1.785320282E0
1.884183502E1,3.183739185E-1,-3.486237526E-1,-1.754758358E0
1.885180302E1,3.342750072E-1,-2.407648563E-1,-1.744238377E0
1.886193402E1,3.873651624E-1,-1.136589050E-1,-1.642520905E0
1.887187402E1,4.506617785E-1,2.939772606E-2,-1.548514366E0
1.888179602E1,5.406283736E-1,1.128013134E-1,-1.457995415E0
1.889185602E1,6.030694246E-1,1.488921642E-1,-1.429037094E0
1.890182702E1,6.544407010E-1,1.773493290E-1,-1.354290485E0
1.891231802E1,6.942055821E-1,1.750822067E-1,-1.228414536E0
1.892178902E1,6.489516497E-1,1.491577625E-1,-1.005250931E0
1.893229602E1,4.446204305E-1,1.731343269E-1,-6.328735352E-1
1.894197002E1,1.704512835E-1,2.202246189E-1,-1.358079910E-1
1.895190802E1,-9.353518486E-2,2.559535503E-1,3.711566925E-1
1.896219602E1,-3.628073931E-1,3.067443371E-1,8.197164536E-1
1.897186402E1,-6.121021509E-1,3.669369221E-1,1.188050270E0
1.898183702E1,-7.550021410E-1,4.861202240E-1,1.375180244E0
1.899187202E1,-7.822064161E-1,6.142303944E-1,1.492441177E0
1.900185402E1,-7.308832407E-1,7.798194885E-1,1.509716988E0
1.901190802E1,-6.589258909E-1,9.909493923E-1,1.451959610E0
1.902195202E1,-5.665096045E-1,1.152844191E0,1.383072853E0
1.903184902E1,-3.830779791E-1,1.228682041E0,1.344099998E0
1.904182102E1,-4.416859150E-2,1.270460367E0,1.173239708E0
1.905195002E1,-3.902912140E-3,1.298027992E0,1.064315796E0
1.906186002E1,-8.778095245E-3,1.189450979E0,9.719076157E-1
1.907185602E1,-1.951652765E-1,1.060503483E0,8.053302765E-1
1.908179502E1,-6.200318336E-1,9.797244072E-1,6.379842758E-1
1.909218002E1,-9.768962860E-1,7.635428905E-1,5.033903122E-1
1.910183502E1,-1.317149043E0,4.568259716E-1,4.970397949E-1
1.911189302E1,-1.763597131E0,4.519271851E-1,5.341415405E-1
1.912199502E1,-2.199036598E0,4.274802208E-1,7.982816696E-1
1.913200602E1,-2.474230766E0,3.713145256E-1,1.506685257E0
1.914191602E1,-2.482335091E0,2.508783340E-1,2.255466461E0
1.915185402E1,-2.413491726E0,-1.356239319E-1,3.139163017E0
1.916179102E1,-2.421379805E0,-4.569349289E-1,3.948038101E0
1.917187502E1,-2.470323086E0,-8.818118572E-1,4.827983856E0
1.918194702E1,-2.621422291E0,-1.126784921E0,5.382734299E0
1.919187102E1,-2.852971554E0,-1.385786533E0,5.508090973E0
1.920183002E1,-3.108572483E0,-1.569700003E0,5.188748360E0
1.921191902E1,-3.365477800E0,-1.605623960E0,4.368945122E0
1.922182302E1,-3.544049501E0,-1.554315090E0,3.341148376E0
1.923184302E1,-3.561816216E0,-1.468973517E0,2.302565575E0
1.924281502E1,-3.442015409E0,-1.353506565E0,1.278712273E0
1.925196102E1,-3.189557076E0,-1.260131001E0,3.221168518E-1
1.926194602E1,-2.812743664E0,-1.192737818E0,-3.364830017E-1
1.927213802E1,-2.451455832E0,-1.136152267E0,-8.061866760E-1
1.928182102E1,-2.135634422E0,-1.116719365E0,-1.074234962E0
1.929188002E1,-1.904823422E0,-1.109528661E0,-1.247032166E0
1.930184402E1,-1.792291045E0,-1.140988469E0,-1.343751907E0
1.931191102E1,-1.795920372E0,-1.185047030E0,-1.379692078E0
1.932182802E1,-1.889476299E0,-1.223263741E0,-1.356217861E0
1.933188902E1,-1.996474028E0,-1.252435684E0,-1.367599964E0
1.934182102E1,-2.033254623E0,-1.257169485E0,-1.425840855E0
1.935196002E1,-2.041638136E0,-1.263984799E0,-1.569296837E0
1.936176402E1,-2.043251991E0,-1.258528829E0,-1.706477165E0
1.937242102E1,-1.986871362E0,-1.181540012E0,-1.833841801E0
1.938336602E1,-1.867798209E0,-1.111581326E0,-1.903171062E0
1.939192302E1,-1.646189809E0,-1.065721869E0,-1.921016693E0
1.940198902E1,-1.499995828E0,-9.962617159E-1,-1.977844238E0
1.941974502E1,-1.264051080E0,-9.455157518E-1,-2.261756420E0
1.943191902E1,-1.193080902E0,-9.660464525E-1,-2.417259216E0
1.944184402E1,-1.161759734E0,-9.523854256E-1,-2.593348503E0
1.945213202E1,-1.071899414E0,-9.428973198E-1,-2.723627567E0
1.946187402E1,-9.269700050E-1,-9.439909458E-1,-2.825039864E0
1.947212402E1,-7.996751070E-1,-9.001770020E-1,-2.955617905E0
1.948211902E1,-6.574231386E-1,-8.596798182E-1,-3.078776836E0
1.949234802E1,-5.088014603E-1,-8.094952106E-1,-3.213307858E0
1.950332402E1,-2.635232210E-1,-5.638828278E-1,-3.264249802E0
1.951189602E1,-2.697904110E-1,-5.931427479E-1,-3.256497383E0
1.952181802E1,-1.664911509E-1,-5.410630703E-1,-3.101537704E0
1.953193102E1,-1.246340275E-1,-4.997730255E-1,-2.980158329E0
1.954181802E1,-1.822291613E-1,-4.022927284E-1,-2.869587898E0
1.955230802E1,-3.017088175E-1,-2.818396091E-1,-2.715360165E0
1.956193102E1,-4.519165754E-1,-1.953535080E-1,-2.424829960E0
1.957189002E1,-5.828320980E-1,-1.303002834E-1,-1.552890301E0
1.958190302E1,-8.734405041E-1,-7.462430000E-2,-9.465360641E-1
1.959186802E1,-9.020591974E-1,-8.155131340E-2,-4.065847397E-1
1.960184202E1,-9.018068314E-1,-1.119520664E-1,3.937625885E-2
1.961182602E1,-9.513229132E-1,-3.740143776E-2,4.251041412E-1
1.962188002E1,-9.569418430E-1,5.140066147E-2,8.031024933E-1
1.963256102E1,-8.926252127E-1,6.902933121E-2,1.153436661E0
1.964185402E1,-8.529109955E-1,8.905601501E-2,1.481913567E0
1.965194202E1,-5.957071781E-1,1.851758957E-1,1.812034607E0
1.966183002E1,-6.186141968E-1,2.961428165E-1,2.061811447E0
1.967194502E1,-6.845594645E-1,3.747298717E-1,2.262581825E0
1.968189502E1,-7.493618727E-1,3.970716000E-1,2.352478981E0
1.969209502E1,-8.129842281E-1,4.365644455E-1,2.485024452E0
1.970178802E1,-8.198299408E-1,4.413440228E-1,2.640939713E0
1.971194502E1,-6.779639721E-1,3.653371334E-1,2.772214890E0
1.972278502E1,-5.270305872E-1,3.108181953E-1,2.821173668E0
1.973189202E1,-3.978310823E-1,2.960908413E-1,2.762486458E0
1.974184602E1,-2.668453455E-1,2.648622990E-1,2.705965996E0
1.975204102E1,-8.781409264E-2,2.916483879E-1,2.541908264E0
1.976201102E1,3.379082680E-2,3.172342777E-1,2.205502510E0
1.977211302E1,9.075605869E-2,3.790731430E-1,1.839402199E0
1.978183902E1,1.773842573E-1,4.742546082E-1,1.508059502E0
1.979204702E1,3.422138691E-1,4.893140793E-1,1.224947929E0
1.980180902E1,4.964829683E-1,4.626502991E-1,1.188840866E0
1.981194102E1,6.221474409E-1,4.680972099E-1,1.364153862E0
1.982176902E1,6.861774921E-1,6.279194355E-1,1.904212952E0
1.983192002E1,7.705347538E-1,5.108342171E-1,2.721787453E0
1.984186002E1,7.671211958E-1,2.938034534E-1,3.533683777E0
1.985201202E1,4.916071892E-1,5.171632767E-2,4.859012604E0
1.986193602E1,2.208954096E-1,-3.212535381E-1,5.874398232E0
1.987189402E1,-7.276999950E-2,-6.644014120E-1,6.078196526E0
1.988188202E1,-3.782600164E-1,-9.504942894E-1,5.564537048E0
1.989186702E1,-6.122170687E-1,-1.105005264E0,4.660397530E0
1.990178802E1,-5.977323055E-1,-1.170731902E0,3.764170647E0
1.991194802E1,-2.949607372E-1,-1.187887073E0,2.868285179E0
1.992190102E1,2.812224627E-1,-1.175677657E0,2.113422394E0
1.993192002E1,9.696233273E-1,-1.156979799E0,1.355657578E0
1.994195302E1,1.630422711E0,-1.133480072E0,6.623811722E-1
1.995193802E1,2.131307125E0,-1.226680517E0,-1.874256134E-2
1.996181102E1,2.493005276E0,-1.380659938E0,-6.474123001E-1
1.997190102E1,2.633313656E0,-1.505746841E0,-1.231122971E0
1.998183002E1,2.635136127E0,-1.573527813E0,-1.581345081E0
1.999321902E1,2.465977192E0,-1.599166393E0,-1.927592754E0
2.000224502E1,2.164720058E0,-1.630993128E0,-2.152729511E0
2.001196902E1,1.837958097E0,-1.652597189E0,-2.328648567E0
2.002220202E1,1.484394312E0,-1.655611753E0,-2.486279011E0
2.003188802E1,1.101471424E0,-1.579867244E0,-2.456754208E0
2.004181102E1,7.722119093E-1,-1.444932461E0,-2.270024776E0
2.005204502E1,5.424003601E-1,-1.274301887E0,-1.918422222E0
2.006184002E1,3.978874683E-1,-1.181073666E0,-1.515275478E0
2.007200802E1,3.676698208E-1,-1.130173922E0,-1.465697765E0
2.008199102E1,4.528595209E-1,-1.078120828E0,-1.521640301E0
2.009208802E1,6.313508749E-1,-1.081721187E0,-1.542156696E0
2.010176202E1,7.821700573E-1,-1.088549972E0,-1.653714657E0
2.011205202E1,9.264110327E-1,-8.855835199E-1,-2.423543453E0
2.012202902E1,1.031469464E0,-9.146865606E-1,-2.859778881E0
2.013197102E1,1.070047617E0,-9.266085625E-1,-3.223050117E0
2.014199102E1,1.027274132E0,-8.815861940E-1,-3.508970737E0
2.015197402E1,1.003773332E0,-8.890966177E-1,-3.695981503E0
2.016188502E1,9.376809597E-1,-9.112328291E-1,-3.750707150E0
2.017190002E1,8.841609955E-1,-8.867926598E-1,-3.755033016E0
2.018179802E1,8.253159523E-1,-8.443889618E-1,-3.708756447E0
2.019194202E1,8.145676851E-1,-8.024528027E-1,-3.529958725E0
2.020184202E1,7.768009901E-1,-7.306334972E-1,-3.301277637E0
2.021203702E1,7.147593498E-1,-6.463284492E-1,-3.116515160E0
2.022276002E1,6.029515266E-1,-5.771527290E-1,-3.004493237E0
2.023191102E1,5.647841692E-1,-5.467929840E-1,-2.801291466E0
2.024189902E1,4.445033073E-1,-4.823021889E-1,-2.565931797E0
2.025186202E1,2.846506834E-1,-4.493839741E-1,-2.201894283E0
2.026181902E1,1.326254606E-1,-4.437451363E-1,-1.717316628E0
2.027189002E1,-1.216650009E-2,-4.253680706E-1,-1.090799332E0
2.028195402E1,-1.351745129E-1,-4.000234604E-1,-4.842424393E-1
2.029193602E1,-2.220191956E-1,-3.835334778E-1,4.589748383E-2
2.030198602E1,-3.006387949E-1,-3.357131481E-1,5.229206085E-1
2.031210802E1,-3.751330376E-1,-1.819100380E-1,9.221096039E-1
2.032192202E1,-4.431278706E-1,-9.174585342E-3,1.295786858E0
2.033208702E1,-6.015748978E-1,2.699463367E-1,1.589188576E0
2.034196902E1,-8.105137348E-1,6.186029911E-1,2.027035713E0
2.035189302E1,-8.852463961E-1,9.016385078E-1,2.432108879E0
2.036178802E1,-8.199719191E-1,1.124927044E0,2.827130318E0
