"Time (s)","Linear Acceleration x (m/s^2)","Linear Acceleration y (m/s^2)","Linear Acceleration z (m/s^2)"
4.298280900E-2,2.014262676E-1,-4.922790527E-1,-4.589471817E-1
5.969130900E-2,4.577894211E-1,-4.273624420E-1,-5.953679085E-1
7.224105900E-2,3.662126064E-1,-4.773392677E-1,-2.602782249E-1
8.340593400E-2,1.362147331E-1,-3.723368645E-1,-4.532194138E-2
9.431037100E-2,2.843880653E-2,-3.624606133E-1,-2.319321632E-1
1.044245900E-1,8.191871643E-2,-2.320523262E-1,-1.372556686E-1
1.145906990E-1,1.756176949E-1,-2.108416557E-1,-6.720447540E-2
1.246877540E-1,1.121325493E-1,-2.561655045E-1,-1.346893311E-1
1.348452810E-1,5.833172798E-2,-1.812396049E-1,-2.225832939E-1
1.447250450E-1,1.026959419E-1,-1.848263741E-1,-3.342223167E-1
1.547819270E-1,1.265599728E-1,-1.056771278E-1,-2.725319862E-1
1.646568680E-1,4.174828529E-2,-1.879601479E-1,-3.309297562E-1
1.749158380E-1,1.522536278E-1,-8.432054520E-2,-1.123604774E-1
1.857183230E-1,2.973330021E-1,-1.777935028E-2,9.339189529E-2
1.952415660E-1,1.469104290E-1,-1.549882889E-1,8.731603622E-2
2.049556870E-1,-1.911854744E-2,7.861423492E-2,1.239695549E-1
2.147917480E-1,7.845306396E-2,2.579512596E-1,2.807517052E-1
2.248587780E-1,3.710739613E-1,-6.201362610E-2,2.562270164E-1
2.347282930E-1,5.414265394E-1,-1.602654457E-1,1.869182587E-1
2.446805510E-1,3.737900257E-1,-7.236957550E-3,4.833865166E-1
2.546476800E-1,3.007721901E-2,2.282652855E-1,7.382731438E-1
2.646187440E-1,-8.839678764E-2,2.890095711E-1,9.119367599E-1
2.746042760E-1,-2.365088463E-2,2.721261978E-1,9.005575180E-1
2.845875420E-1,1.578290462E-1,1.662511826E-1,7.036900520E-1
2.945611750E-1,2.900434732E-1,3.056383133E-2,5.206160545E-1
3.045239920E-1,4.109227657E-1,-8.876895905E-2,7.567467690E-1
3.145909000E-1,4.286259413E-1,-2.536864281E-1,6.167998314E-1
3.245828540E-1,6.149903536E-1,-4.174089432E-2,1.290582180E0
3.346028310E-1,4.811630249E-1,4.611139297E-1,1.561243534E0
3.446208200E-1,-1.930222511E-1,1.393530846E0,1.415090561E0
3.545458140E-1,-6.355473995E-1,1.498687267E0,8.842878342E-1
3.646023110E-1,-5.607862473E-1,1.315263271E0,4.604053497E-1
3.747460600E-1,4.755307436E-1,3.616285324E-1,2.594418526E-1
3.846164340E-1,8.121443987E-1,-3.999500275E-1,-1.584100723E-1
3.947601210E-1,8.327829838E-1,-3.260121346E-1,-4.723558426E-1
4.048454650E-1,2.395648241E0,-1.012720108E0,-7.914624214E-1
4.150246370E-1,2.235518456E0,-1.776886940E0,-4.976363182E-1
4.248472230E-1,1.903202653E0,-1.710142136E0,3.702774048E-1
4.347500160E-1,2.187645197E0,-1.183301449E0,1.194391251E-1
4.454224120E-1,1.917317033E0,-1.342475891E0,-2.161068916E-1
4.551061100E-1,2.141652822E0,-2.239686966E0,1.014223099E-1
4.648379590E-1,2.812007427E0,-2.527784586E0,5.529022217E-1
4.753778840E-1,2.865069866E0,-2.593582630E0,6.486883163E-1
4.849968460E-1,2.456525087E0,-2.411719084E0,8.219699860E-1
4.948128270E-1,1.987930059E0,-1.524650574E0,1.034341812E0
5.052353180E-1,1.521038651E0,-9.965662956E-1,8.345193863E-1
5.149775630E-1,8.999478221E-1,-7.791423798E-1,1.825122833E-1
5.247756860E-1,7.458829880E-1,-7.464842796E-1,-2.515649796E-1
5.348052470E-1,7.019915581E-1,-6.413893700E-1,-9.337172508E-1
5.447480280E-1,7.505082488E-1,-6.846804619E-1,-1.715389729E0
5.547939180E-1,9.244520664E-1,-6.500205994E-1,-2.235171795E0
5.648293630E-1,1.418190002E0,-8.654952049E-1,-1.723024845E0
5.746580860E-1,1.271461606E0,-6.368355751E-1,-1.033183098E0
5.852254470E-1,1.052312255E0,-2.932434082E-1,-4.710292816E-1
5.950176280E-1,1.115638971E0,-5.799531937E-2,-7.500934601E-2
6.048662180E-1,1.440930128E0,-7.798337936E-2,4.386892319E-1
6.147070130E-1,1.242800832E0,-1.016211510E-1,-7.191252708E-1
6.246304110E-1,1.221294522E0,-6.276416779E-2,-1.388316154E0
6.346401100E-1,1.037350297E0,-4.940776825E-1,-8.665428162E-1
6.445904590E-1,3.970946074E-1,-5.281414986E-1,-3.531208038E-1
6.545971340E-1,-1.742381155E-1,-4.440279007E-1,-4.653015137E-1
6.645744710E-1,-3.981434107E-1,-4.505286217E-1,-7.159976959E-1
6.745971400E-1,-3.177111745E-1,-4.239525795E-1,-8.216581345E-1
6.845484740E-1,-1.668809652E-1,-3.598928452E-1,-8.348069191E-1
6.946246410E-1,2.115500271E-1,-1.635756493E-1,-9.295125008E-1
7.048217250E-1,8.676093817E-1,-5.903530121E-2,-8.443665504E-1
7.146867670E-1,1.325324059E0,9.660720825E-2,-6.439342499E-1
7.246832880E-1,1.396835566E0,2.760720253E-1,-4.837722778E-1
7.355455480E-1,1.077319145E0,3.952450752E-1,-2.873287201E-1
7.450676780E-1,3.812072575E-1,2.977161407E-1,1.053142548E-2
7.548267430E-1,-4.486432672E-1,9.031724930E-2,1.841402054E-1
7.647067760E-1,-8.866920471E-1,1.220533848E-1,2.253923416E-1
7.747157920E-1,-9.196450710E-1,2.361841202E-1,3.108282089E-1
7.853433000E-1,-7.495121956E-1,3.128714561E-1,3.812150955E-1
7.951395540E-1,-6.187044978E-1,2.951300144E-1,3.228607178E-1
8.048801810E-1,-4.410969019E-1,2.834875584E-1,2.577438354E-1
8.147304950E-1,-2.387307286E-1,2.970809937E-1,1.764993668E-1
8.248636520E-1,2.301847935E-2,3.388297558E-1,1.188383102E-1
8.349217300E-1,3.070959449E-1,3.999559879E-1,1.595506668E-1
8.448087690E-1,5.098295212E-1,4.398362637E-1,1.050624847E-1
8.553947890E-1,5.816486478E-1,4.107513428E-1,6.281566620E-2
8.650227990E-1,5.865982771E-1,3.467223644E-1,-2.066421509E-2
8.748603040E-1,4.713899791E-1,2.585377693E-1,-1.181898117E-1
8.846575560E-1,2.490769327E-1,2.096226215E-1,-7.806015015E-2
8.946446820E-1,7.478308678E-2,1.784191132E-1,-3.671169281E-2
9.046222450E-1,-9.395706654E-2,1.134493351E-1,-5.712985992E-2
9.146320270E-1,-2.727266550E-1,1.210703850E-1,-2.789497375E-3
9.247504180E-1,-4.095860124E-1,2.055766582E-1,6.474685669E-2
9.346806130E-1,-5.071414709E-1,3.116772175E-1,1.183872223E-1
9.448072110E-1,-5.246694684E-1,4.215605259E-1,1.804485321E-1
9.546525100E-1,-4.851011038E-1,5.171134472E-1,3.114013672E-1
9.645721590E-1,-3.537935019E-1,5.830359459E-1,5.815744400E-1
9.759954840E-1,1.213616729E-1,5.180363655E-1,1.464006424E0
9.853731460E-1,1.211634278E-1,5.173907280E-1,1.464205742E0
9.949589770E-1,3.042957187E-1,3.987889290E-1,1.731842041E0
1.004822393E0,3.129889965E-1,3.154141903E-1,1.950921059E0
1.014772101E0,1.922709942E-1,2.582929134E-1,2.018275261E0
1.025685455E0,-3.340325356E-1,1.295464039E-1,1.693589211E0
1.035331632E0,-3.280001879E-1,1.341300011E-1,1.692673683E0
1.045221720E0,-6.152225137E-1,7.942581177E-2,1.397959709E0
1.055068764E0,-8.427042365E-1,7.594013214E-2,1.043977737E0
1.064927786E0,-9.951510429E-1,1.167442799E-1,6.969203949E-1
1.075940797E0,-1.092612505E0,2.796344757E-1,5.732641220E-1
1.085307803E0,-1.076143026E0,2.823798656E-1,5.742101669E-1
1.095180806E0,-7.552078962E-1,2.418601513E-1,1.020825386E0
1.105416807E0,-6.093065739E-1,1.199667454E-1,1.102793694E0
1.115001308E0,-6.157561541E-1,1.683211327E-2,1.199782372E0
1.124776058E0,-6.404550076E-1,-5.308485031E-2,1.277883530E0
1.134654433E0,-6.587084532E-1,-1.834552288E-1,1.210675240E0
1.145506621E0,-7.499157786E-1,-2.793159485E-1,9.509963989E-1
1.155061215E0,-8.788735867E-1,-2.840392590E-1,5.589485168E-1
1.164834512E0,-9.543371201E-1,-3.132729530E-1,9.329700470E-2
1.174674160E0,-9.724817276E-1,-3.632874489E-1,-3.999805450E-1
1.184649484E0,-9.737727642E-1,-4.239916801E-1,-8.286695480E-1
1.194578146E0,-9.536836147E-1,-4.419388771E-1,-1.054499626E0
1.204591977E0,-9.474309683E-1,-5.003254414E-1,-1.158127785E0
1.214802893E0,-9.223157167E-1,-5.768833160E-1,-1.204455376E0
1.225792351E0,-9.199932814E-1,-6.523752213E-1,-1.339863777E0
1.235310580E0,-7.882175446E-1,-6.501381397E-1,-1.494776726E0
1.244950694E0,-7.771538496E-1,-6.354684830E-1,-1.547560215E0
1.254921251E0,-7.510266304E-1,-6.355969906E-1,-1.596594334E0
1.265438030E0,-7.530395985E-1,-6.378974915E-1,-1.534203529E0
1.275057419E0,-8.062804937E-1,-6.072134972E-1,-1.536349773E0
1.285663614E0,-8.469220400E-1,-5.745906830E-1,-1.531004429E0
1.295430211E0,-9.431982040E-1,-5.274488926E-1,-1.462583065E0
1.306380010E0,-1.062061071E0,-4.349539280E-1,-1.307988644E0
1.315480909E0,-1.136306643E0,-3.692181110E-1,-1.084126472E0
1.325230859E0,-1.098009348E0,-3.703937531E-1,-7.659063339E-1
1.335437834E0,-9.517843723E-1,-3.367364407E-1,-2.088584900E-1
1.345064821E0,-7.457988262E-1,-2.975170612E-1,4.727449417E-1
1.357442815E0,-6.425877810E-1,-2.962288857E-1,1.484353065E0
1.366484312E0,-6.315138340E-1,-2.588343620E-1,1.457898140E0
1.375863060E0,-7.722144127E-1,-1.583907604E-1,1.515117645E0
1.385845934E0,-9.697519541E-1,-5.537986755E-2,1.316877365E0
1.395230371E0,-1.115943551E0,5.045151711E-2,1.015367508E0
1.405020590E0,-1.143188477E0,1.938035488E-1,6.732349396E-1
1.415239199E0,-1.040255308E0,3.595685959E-1,3.392448425E-1
1.424976504E0,-8.226374388E-1,4.586572647E-1,-6.856632233E-2
1.435035656E0,-5.539722443E-1,5.281925201E-1,-5.072326660E-1
1.445052732E0,-2.956664562E-1,5.845642090E-1,-8.396835327E-1
1.455196770E0,-8.978080750E-2,6.118054390E-1,-1.091590881E0
1.465845789E0,9.214544296E-2,6.033091545E-1,-1.258730888E0
1.475265299E0,2.288827896E-1,6.319460869E-1,-1.216277122E0
1.484910554E0,3.444533348E-1,6.364948750E-1,-1.192061424E0
1.494816681E0,4.271309376E-1,6.780354977E-1,-1.026661873E0
1.504660745E0,4.740990400E-1,7.381231785E-1,-8.029594421E-1
1.516268277E0,5.517131090E-1,7.926011086E-1,-3.039646149E-1
1.525409043E0,5.301178694E-1,8.065929413E-1,-3.115472794E-1
1.535002426E0,5.774398446E-1,8.251590729E-1,-7.300472260E-2
1.546507117E0,6.112123728E-1,8.661596775E-1,1.784410477E-1
1.555512963E0,5.890032053E-1,8.787789345E-1,1.713962555E-1
1.565047386E0,5.875464678E-1,9.196114540E-1,2.788505554E-1
1.576183097E0,5.417994261E-1,5.322146416E-1,7.258167267E-1
1.585382953E0,4.573370218E-1,3.968553543E-1,7.590799332E-1
1.594956381E0,3.441803455E-1,3.335959911E-1,7.910032272E-1
1.604756595E0,2.413138747E-1,3.421344757E-1,7.530412674E-1
1.614831702E0,7.597100735E-2,3.775482178E-1,6.903324127E-1
1.625066255E0,-1.229250431E-1,4.040524960E-1,7.663307190E-1
1.634815532E0,-1.380399466E-1,4.010908604E-1,7.656536102E-1
1.644680670E0,-1.300504208E-1,4.747433662E-1,1.108246803E0
1.654673239E0,-4.222422838E-2,4.982621670E-1,1.297748566E0
1.664778024E0,1.000612378E-1,5.195951462E-1,1.478540421E0
1.674719916E0,2.918665409E-1,5.015978813E-1,1.574485779E0
1.684623362E0,4.582901597E-1,5.063505173E-1,1.615139961E0
1.694660585E0,6.046617627E-1,5.396080017E-1,1.631960869E0
1.704659697E0,7.273955345E-1,6.053686142E-1,1.640660286E0
1.715088753E0,8.354666829E-1,6.585557461E-1,1.549577713E0
1.724822781E0,9.305800200E-1,6.972212791E-1,1.348703384E0
1.734920795E0,9.951357841E-1,6.818082333E-1,1.146708488E0
1.744776802E0,1.108795404E0,5.720810890E-1,1.041586876E0
1.755628805E0,1.259394169E0,4.630043507E-1,1.051031113E0
1.765120807E0,1.337249756E0,3.143491745E-1,1.096177101E0
1.775412308E0,1.323787689E0,1.309685707E-1,1.336720467E0
1.785990558E0,1.283185601E0,-1.681809425E-1,1.689898491E0
1.795395183E0,1.098101616E0,-5.891351700E-1,2.062786102E0
1.805287496E0,7.038903236E-1,-9.187819958E-1,2.424575806E0
1.819528652E0,-3.865087628E-1,-1.444177628E0,2.725603104E0
1.834650809E0,-3.374232650E-1,-1.397758484E0,2.712075233E0
1.844710809E0,-6.856815815E-1,-1.621479273E0,2.706050873E0
1.854611809E0,-9.037405252E-1,-1.827096939E0,2.563759804E0
1.864554809E0,-9.746322036E-1,-2.049583197E0,2.339850426E0
1.874656809E0,-9.589023590E-1,-2.179873943E0,2.032544136E0
1.887080809E0,-8.293180466E-1,-2.283385277E0,1.737375259E0
1.904861809E0,-1.998459101E-1,-2.418750048E0,9.778528214E-1
1.914540809E0,1.466353536E-1,-2.417058229E0,4.305257797E-1
1.924680809E0,4.131508470E-1,-2.403647900E0,-2.227535248E-1
1.934604809E0,6.254777908E-1,-2.364848614E0,-8.005981445E-1
1.945112809E0,7.830396891E-1,-2.353948832E0,-1.271674156E0
1.954550809E0,8.711276650E-1,-2.291173935E0,-1.609254360E0
1.964653809E0,9.718190432E-1,-2.198291540E0,-1.716290474E0
1.975856809E0,1.097021222E0,-2.134838104E0,-1.625101566E0
1.985306809E0,1.239728808E0,-2.050150394E0,-1.376530170E0
1.994680809E0,1.396553278E0,-1.923050523E0,-1.048850060E0
2.004694809E0,1.573747396E0,-1.795829535E0,-6.980199814E-1
2.016310809E0,1.731877446E0,-1.632850647E0,-4.433135986E-1
2.024880809E0,1.854785442E0,-1.475108385E0,-2.051925659E-1
2.034753809E0,1.830690145E0,-1.337154865E0,-8.027458191E-2
2.044985809E0,1.632874489E0,-1.177055120E0,-3.868484497E-2
2.054878809E0,1.309079885E0,-1.029561996E0,-1.279201508E-1
2.065207809E0,9.664086103E-1,-8.995637894E-1,-2.890462875E-1
2.074565809E0,7.068142295E-1,-7.975723743E-1,-5.088396072E-1
2.084981809E0,5.170938373E-1,-6.968188286E-1,-7.049713135E-1
2.095095809E0,4.201514721E-1,-5.983316898E-1,-8.798179626E-1
2.105200809E0,4.264330864E-1,-5.183877945E-1,-1.072762966E0
2.116811809E0,6.885979772E-1,-3.506522179E-1,-1.470404625E0
2.125190809E0,6.885018945E-1,-3.689370155E-1,-1.462884903E0
2.135053809E0,8.850306273E-1,-3.114514351E-1,-1.560261726E0
2.144709809E0,9.432767034E-1,-2.764358521E-1,-1.810325623E0
2.154815809E0,8.294432759E-1,-2.011127472E-1,-1.947315693E0
2.164572809E0,6.401358843E-1,-9.767556190E-2,-2.027802467E0
2.174749809E0,5.040439367E-1,-4.827713966E-2,-2.085631847E0
2.184729809E0,4.391671419E-1,-6.810188293E-2,-1.627254963E0
2.194656809E0,4.850766659E-1,-9.725880623E-2,-1.214973450E0
2.204574809E0,5.618298650E-1,-1.436996460E-1,-6.930904388E-1
2.214746809E0,5.845728517E-1,-1.420879364E-1,-1.780929565E-1
2.225187809E0,5.467652678E-1,-8.275008202E-2,3.184871674E-1
2.234660809E0,4.897967577E-1,-9.360313416E-4,7.579240799E-1
2.244608809E0,4.218109846E-1,9.949350357E-2,1.103678703E0
2.256597809E0,3.674201965E-1,2.117273808E-1,1.406660080E0
2.264695809E0,3.675371408E-1,2.832498550E-1,1.705520630E0
2.274572809E0,3.904687166E-1,3.176300526E-1,1.927060127E0
2.284961809E0,3.867094517E-1,3.209297657E-1,1.898331642E0
2.294623809E0,3.136215210E-1,3.430957794E-1,1.663112640E0
2.305452809E0,2.297729254E-1,4.032633305E-1,1.251927376E0
2.315150809E0,2.007341385E-1,4.625585079E-1,7.937774658E-1
2.326573809E0,3.120292425E-1,4.940443039E-1,4.386787415E-1
2.334740809E0,4.947531223E-1,5.091876984E-1,2.512722015E-1
2.345280809E0,7.310286760E-1,4.926455021E-1,2.075786591E-1
2.354740809E0,9.133918881E-1,4.329226017E-1,2.475166321E-1
2.364904809E0,9.910712242E-1,3.726813793E-1,4.400205612E-1
2.377552809E0,9.002149105E-1,3.792314529E-1,6.455001831E-1
2.394680809E0,4.993301630E-1,4.646124840E-1,1.193696022E0
2.405074809E0,3.904607296E-1,5.518546104E-1,1.276245117E0
2.414662809E0,3.966741562E-1,6.578547955E-1,1.266448975E0
2.424819809E0,5.086694360E-1,7.197413445E-1,1.179534912E0
2.434630809E0,6.701130271E-1,7.224376202E-1,1.131548882E0
2.445283809E0,8.558424115E-1,6.817352772E-1,1.132834435E0
2.454655809E0,1.104504347E0,4.489464760E-1,1.290895462E0
2.464781809E0,1.325224638E0,3.772091866E-2,1.674337387E0
2.475310809E0,1.341660738E0,-4.223210812E-1,2.085830688E0
2.484946809E0,1.031322241E0,-8.118650913E-1,2.444056511E0
2.495194809E0,4.924383759E-1,-1.170459509E0,2.790102959E0
2.504834809E0,-1.074427366E-1,-1.503207922E0,3.065674782E0
2.514703809E0,-7.291270494E-1,-1.721975446E0,3.285636902E0
2.524736809E0,-1.307115197E0,-1.701677442E0,3.412590981E0
2.535925809E0,-1.686630249E0,-1.607840300E0,3.335059166E0
2.544761809E0,-1.735446692E0,-1.615798593E0,3.028872490E0
2.554664809E0,-1.534566998E0,-1.643211484E0,2.418066978E0
2.564847809E0,-1.217963099E0,-1.672305822E0,1.599825859E0
2.574695809E0,-8.832589388E-1,-1.732514858E0,6.216945648E-1
2.588331809E0,-4.454349279E-1,-1.960066676E0,-1.005518436E0
2.604886809E0,-4.164090157E-1,-2.105149269E0,-1.446786880E0
2.614623809E0,-4.287657738E-1,-2.195556641E0,-1.782914639E0
2.624812809E0,-5.206115246E-1,-2.242224693E0,-1.935155869E0
2.637025809E0,-6.541510820E-1,-2.271743298E0,-1.909799576E0
2.649969309E0,-6.382746696E-1,-2.363406897E0,-1.567108631E0
2.666502809E0,-1.872293949E-1,-2.651162148E0,-4.129676819E-1
2.674659809E0,-2.346006632E-1,-2.633611202E0,-4.263143539E-1
2.684697809E0,-8.896803856E-2,-2.768857956E0,2.000532150E-1
2.696860809E0,-1.410012841E-1,-2.889582157E0,9.249916077E-1
2.709847809E0,-4.360020757E-1,-2.840774059E0,9.298667908E-1
2.724690809E0,-1.235137701E0,-2.781582355E0,2.359352112E-1
2.734707809E0,-1.498811722E0,-2.649725437E0,-2.098836899E-1
2.745033809E0,-1.609122992E0,-2.514964342E0,-6.110591888E-1
2.754714809E0,-1.640614986E0,-2.343439341E0,-8.702611923E-1
2.765289809E0,-1.566438794E0,-2.146601200E0,-1.014368534E0
2.774533809E0,-1.385935664E0,-1.981369495E0,-1.142931938E0
2.784683809E0,-1.109801888E0,-1.863567710E0,-1.244565487E0
2.794559809E0,-7.921161652E-1,-1.747128010E0,-1.259288788E0
2.806223809E0,-4.609804153E-1,-1.601023912E0,-1.157978535E0
2.820721809E0,-2.090015411E-1,-1.469700336E0,-1.033706665E0
2.834665809E0,1.827805638E-1,-1.188838243E0,-9.507455826E-1
2.845212809E0,3.454824686E-1,-1.101127625E0,-8.791360855E-1
2.854826809E0,4.694937468E-1,-1.028847456E0,-6.988782883E-1
2.865570809E0,5.100166202E-1,-9.668252468E-1,-4.951438904E-1
2.874848809E0,4.917716980E-1,-9.177846909E-1,-1.608066559E-1
2.884733809E0,4.824892879E-1,-8.583405018E-1,1.994714737E-1
2.895822809E0,4.583033323E-1,-8.145158291E-1,5.135040283E-1
2.904844809E0,4.144949913E-1,-7.849910259E-1,8.257055283E-1
2.914572809E0,3.440205455E-1,-7.338449955E-1,1.161965370E0
2.924618809E0,3.065311909E-1,-6.652922630E-1,1.521865845E0
2.934504809E0,3.290604353E-1,-6.260471344E-1,1.867826462E0
2.944475809E0,3.429222107E-1,-6.099073887E-1,2.119665146E0
2.954667809E0,3.192057014E-1,-5.639073849E-1,2.230933189E0
2.964574809E0,3.288190961E-1,-5.118305683E-1,2.264895439E0
2.974767809E0,3.743922710E-1,-4.882569313E-1,2.204111099E0
2.986303809E0,4.539498985E-1,-4.875984192E-1,2.039437294E0
2.994560809E0,4.611645639E-1,-4.714841843E-1,1.738929749E0
3.004623809E0,4.267926812E-1,-4.145262241E-1,1.383612633E0
3.016487809E0,3.688504100E-1,-3.856561184E-1,1.013760567E0
3.025458809E0,3.594024181E-1,-3.386480808E-1,7.048187256E-1
3.034570809E0,3.453837633E-1,-2.808053493E-1,4.941167831E-1
3.044640809E0,3.761556149E-1,-2.157163620E-1,4.424238205E-1
3.054649809E0,4.724781215E-1,-1.451735497E-1,4.722833633E-1
3.065370809E0,6.646310091E-1,-1.943531036E-1,6.689157486E-1
3.075079809E0,9.562931657E-1,-4.178967476E-1,1.050539970E0
3.084683809E0,1.108409405E0,-6.656150818E-1,1.490484238E0
3.094753809E0,1.069391131E0,-8.659336567E-1,2.002788544E0
3.105194809E0,8.950444460E-1,-1.104346275E0,2.466568947E0
3.116161809E0,4.777425528E-1,-1.399058223E0,2.813349724E0
3.124561809E0,-2.000507116E-1,-1.570492864E0,2.926276207E0
3.134530809E0,-8.919506073E-1,-1.676861763E0,2.675736427E0
3.145087809E0,-1.435546637E0,-1.708684087E0,2.205780983E0
3.154860809E0,-1.746816874E0,-1.670094490E0,1.648159027E0
3.164507809E0,-1.745473981E0,-1.608541489E0,1.122802734E0
3.174912809E0,-1.395822883E0,-1.551618695E0,6.213998795E-1
3.184533809E0,-7.826969624E-1,-1.540757656E0,5.017566681E-2
3.194947809E0,-1.139793396E-1,-1.518098354E0,-5.618124008E-1
3.204950809E0,4.311065078E-1,-1.405052662E0,-1.019258499E0
3.214541809E0,9.559623003E-1,-1.288001537E0,-1.319104671E0
3.224669809E0,1.509842157E0,-1.276446819E0,-1.492938042E0
3.234601809E0,1.986475468E0,-1.291602373E0,-1.666382790E0
3.244770809E0,2.358265877E0,-1.318439245E0,-1.818412304E0
3.254556809E0,2.582282066E0,-1.327466965E0,-1.913652897E0
3.265117809E0,2.451764822E0,-1.346298218E0,-1.629391670E0
3.275208809E0,2.090142727E0,-1.294793129E0,-1.179982662E0
3.284683809E0,1.508762240E0,-1.227883816E0,-5.010070801E-1
3.294631809E0,8.207701445E-1,-1.163356781E0,3.252897263E-1
3.304636809E0,1.862574518E-1,-1.121611595E0,9.584341049E-1
3.316334809E0,-3.697364926E-1,-1.014576435E0,1.338363647E0
3.324893809E0,-8.461888433E-1,-8.226978779E-1,1.383790016E0
3.334731809E0,-1.131504297E0,-6.070909500E-1,1.098502159E0
3.344539809E0,-1.153099060E0,-4.206280708E-1,6.213035583E-1
3.354603809E0,-1.004096985E0,-2.274465561E-1,4.221725464E-2
3.364972809E0,-7.168034315E-1,-2.438688278E-2,-4.987869263E-1
3.374715809E0,-3.069584966E-1,5.581498146E-2,-1.408395290E0
3.384739809E0,-2.975499630E-2,1.783804893E-1,-1.828498840E0
3.394612809E0,8.151727915E-2,1.469717026E-1,-1.896374702E0
3.406033809E0,1.387674809E-1,2.848458290E-1,-1.919882298E0
3.414551809E0,8.759552240E-2,1.720879078E-1,-1.972248077E0
3.424561809E0,8.055347204E-2,8.549046516E-2,-1.833970547E0
3.434607809E0,-2.301305532E-2,4.611420631E-2,-1.697586536E0
3.444562809E0,-5.050897598E-2,-5.737590790E-2,-1.435856819E0
3.454567809E0,-4.000806808E-2,-2.139959335E-1,-1.130086899E0
3.464517809E0,-7.936680317E-2,-3.565177917E-1,-8.418569565E-1
3.474630809E0,-1.261274815E-1,-4.936742783E-1,-5.462083817E-1
3.485487809E0,-1.840354800E-1,-6.029961109E-1,-3.390989304E-1
3.496690809E0,-2.594969869E-1,-6.657111645E-1,-2.595739365E-1
3.514690809E0,-3.460110426E-1,-6.483793259E-1,-3.535947800E-1
3.524948809E0,-3.200752735E-1,-6.561064720E-1,-4.882354736E-1
3.534683809E0,-2.842457891E-1,-6.049649715E-1,-6.916360855E-1
3.544552809E0,-2.081693411E-1,-5.369734764E-1,-9.284553528E-1
3.554771809E0,-2.688866854E-2,-4.938955307E-1,-1.126249313E0
3.565846809E0,2.233765721E-1,-5.151278973E-1,-1.324511051E0
3.574629809E0,4.525281787E-1,-4.977624416E-1,-1.572869778E0
3.585237809E0,5.826948285E-1,-4.773268700E-1,-1.810837746E0
3.594687809E0,6.476362944E-1,-5.010681152E-1,-2.024667740E0
3.604580809E0,5.804010034E-1,-5.258090496E-1,-2.196732521E0
3.614727809E0,4.447473586E-1,-5.266652107E-1,-2.373279572E0
3.624630809E0,2.563005090E-1,-5.028548241E-1,-2.495284557E0
3.634591809E0,8.336955309E-2,-5.033855438E-1,-2.568186760E0
3.644651809E0,-8.515787125E-2,-5.132565498E-1,-2.512187958E0
3.657116809E0,-1.921916008E-1,-5.068089962E-1,-2.298777103E0
3.674792809E0,-3.121502995E-1,-5.688321590E-1,-1.719222546E0
3.686710809E0,-3.042567372E-1,-6.186559200E-1,-1.455657482E0
3.704535809E0,-1.885757446E-1,-7.668809891E-1,-8.340148926E-1
3.714520809E0,-2.033238411E-1,-7.845444679E-1,-5.537595749E-1
3.724679809E0,-2.493191957E-1,-7.908885479E-1,-2.302761078E-1
3.735023809E0,-2.445096970E-1,-9.374997616E-1,-2.069091797E-2
3.744625809E0,-1.896409988E-1,-1.105643272E0,2.979087830E-2
3.754562809E0,-9.487199783E-2,-1.165263176E0,-1.133337021E-1
3.764579809E0,1.083028316E-2,-1.191682577E0,-3.440685272E-1
3.774642809E0,1.491074562E-1,-1.247470856E0,-5.072231293E-1
3.784579809E0,3.356893659E-1,-1.299739361E0,-5.976657867E-1
3.794593809E0,4.947983623E-1,-1.358555079E0,-6.959733963E-1
3.804542809E0,5.624382496E-1,-1.464446783E0,-4.640884399E-1
3.814565809E0,5.656038523E-1,-1.532435656E0,-2.215099335E-2
3.825348809E0,5.613206625E-1,-1.477626085E0,4.517459869E-1
3.836995809E0,8.300904632E-1,-1.499169588E0,9.696922302E-1
3.849855309E0,1.763636470E0,-1.359401941E0,2.399185181E0
3.864726809E0,2.074582815E0,-1.191045761E0,2.933981895E0
3.875595809E0,2.367879152E0,-1.457196951E0,3.604039192E0
3.884902809E0,2.345119476E0,-1.829193354E0,4.351256371E0
3.894678809E0,1.882147789E0,-2.294059277E0,4.582254410E0
3.904775809E0,9.484155774E-1,-2.679317713E0,4.337030411E0
3.914532809E0,-5.080340505E-1,-2.579253674E0,3.778354645E0
3.924963809E0,-1.815936685E0,-2.269262314E0,3.153156281E0
3.934649809E0,-2.752071857E0,-1.840761185E0,2.585773468E0
3.944902809E0,-3.165319920E0,-1.259744406E0,2.109667778E0
3.954548809E0,-3.115456581E0,-6.731765270E-1,1.592254639E0
3.964547809E0,-2.736562729E0,-2.652618885E-1,1.124379158E0
3.974761809E0,-2.100708246E0,2.763628960E-2,8.210954666E-1
3.984550809E0,-1.470786572E0,2.967662811E-1,8.232879639E-1
3.997675809E0,-9.376108646E-1,4.587001801E-1,1.145302773E0
4.014544809E0,1.078612804E-1,3.348762989E-1,2.370133400E0
4.024839809E0,2.654540539E-1,2.518799305E-1,2.867646217E0
4.034532809E0,1.211726069E-1,2.821500301E-1,3.109227180E0
4.044739809E0,-1.823110580E-1,3.282241821E-1,3.059218407E0
4.054807809E0,-5.451860428E-1,4.034407139E-1,2.861119270E0
4.064753809E0,-8.494920731E-1,5.049920082E-1,2.599147797E0
4.074771809E0,-9.745231867E-1,6.599018574E-1,2.300182343E0
4.084795809E0,-8.479630947E-1,8.071184158E-1,1.933497429E0
4.094614809E0,-5.384404659E-1,8.930830956E-1,1.434500694E0
4.105701809E0,-1.554487944E-1,8.787915707E-1,8.158922195E-1
4.114584809E0,1.710374355E-1,8.480386734E-1,2.054386139E-1
4.124663809E0,4.881724119E-1,8.376436234E-1,-4.079637527E-1
4.134632809E0,6.569067836E-1,7.250843048E-1,-8.514566422E-1
4.144606809E0,7.221411467E-1,5.951223373E-1,-1.126709938E0
4.156124809E0,6.683878899E-1,4.459671974E-1,-1.286653519E0
4.164923809E0,5.749689341E-1,2.392680645E-1,-1.308760643E0
4.174543809E0,4.279803038E-1,2.355647087E-2,-1.275733948E0
4.184556809E0,2.247638702E-1,-1.918931007E-1,-1.233929634E0
4.194963809E0,-2.251350880E-2,-3.812980652E-1,-1.226861954E0
4.205010809E0,-2.138906717E-1,-5.594785213E-1,-1.337715149E0
4.214511809E0,-3.629773855E-1,-7.776324749E-1,-1.450015545E0
4.225008809E0,-4.378128052E-1,-9.664272070E-1,-1.553449154E0
4.234758809E0,-4.230003357E-1,-1.153820634E0,-1.701181412E0
4.244528809E0,-3.349581957E-1,-1.351390600E0,-1.799117088E0
4.254546809E0,-2.174659967E-1,-1.522576213E0,-2.028499603E0
4.264616809E0,-8.214437962E-2,-1.655707002E0,-2.297603130E0
4.277047809E0,3.589117527E-1,-1.882437348E0,-2.445876598E0
4.294557809E0,5.440564752E-1,-2.113512039E0,-2.397081852E0
4.305388809E0,6.894115806E-1,-2.312490225E0,-1.985462189E0
4.314670809E0,7.215927243E-1,-2.378045082E0,-1.957447052E0
4.324831809E0,6.933524013E-1,-2.356891394E0,-1.110456944E0
4.336529809E0,6.099825501E-1,-2.246236324E0,-6.948957443E-1
4.344653809E0,2.732193470E-1,-2.009743214E0,-3.390932083E-1
4.354878809E0,-1.943207979E-1,-1.710206747E0,-1.967983246E-1
4.365112809E0,-7.033166885E-1,-1.261255503E0,-2.727813721E-1
4.374837809E0,-9.573351145E-1,-8.531925678E-1,-3.976707458E-1
4.385623809E0,-8.019065857E-1,-6.525607109E-1,-4.449577332E-1
4.394553809E0,4.658019543E-2,-7.264850140E-1,-3.602838516E-1
4.404893809E0,1.296417713E0,-7.642636299E-1,1.615142822E-1
4.414516809E0,2.301851273E0,-1.819226742E-1,8.214540482E-1
4.424737809E0,3.139007092E0,1.342968941E-1,1.875612259E0
4.435393809E0,3.495058298E0,-3.166885376E-1,3.950901985E0
4.444837809E0,2.941716194E0,-8.766798973E-1,6.305305481E0
4.454644809E0,1.416225672E0,-1.193218231E0,7.892351151E0
4.464640809E0,-6.337000132E-1,-7.847602367E-1,7.915481567E0
4.474704809E0,-2.528097153E0,4.199695587E-2,7.058418274E0
4.484561809E0,-3.275221825E0,6.877484322E-1,6.113692284E0
4.494582809E0,-2.839411736E0,1.180312395E0,5.335517883E0
4.505805809E0,-1.795039058E0,1.741562366E0,4.462321281E0
4.514547809E0,-4.084939957E-1,2.218106270E0,3.480677605E0
4.524942809E0,9.834045768E-1,2.608037472E0,2.570947647E0
4.534704809E0,2.072765350E0,2.831001997E0,9.011878967E-1
4.544802809E0,2.557526350E0,2.762084007E0,2.240343094E-1
4.559188809E0,2.719376087E0,2.509011984E0,-5.546779633E-1
4.574629809E0,2.153297901E0,2.186411142E0,-1.488117695E0
4.588115809E0,1.703439593E0,2.028096676E0,-1.449957371E0
4.604685809E0,7.889634967E-1,1.570618868E0,-1.134243011E0
4.616335809E0,3.089600205E-1,1.324370861E0,-7.919883728E-1
4.625337809E0,-9.483122826E-2,1.097918272E0,-7.284994125E-1
4.634804809E0,-3.663029671E-1,8.846852779E-1,-7.013463974E-1
4.645048809E0,-5.367146730E-1,7.118093967E-1,-7.890768051E-1
4.654963809E0,-6.051317453E-1,5.173108578E-1,-1.140680313E0
4.664592809E0,-6.347584724E-1,3.667263985E-1,-1.630574226E0
4.674547809E0,-6.878193617E-1,2.492721081E-1,-2.111438274E0
4.684856809E0,-6.311037540E-1,9.246587753E-2,-2.405701637E0
4.694647809E0,-4.692648649E-1,-9.236121178E-2,-2.481623650E0
4.705412809E0,-2.890789509E-1,-2.014660835E-1,-2.403537273E0
4.714737809E0,-5.804383755E-2,-3.128442764E-1,-2.205810547E0
4.724822809E0,1.603076458E-1,-4.278228283E-1,-1.956976414E0
4.734765809E0,3.095004559E-1,-5.523505211E-1,-1.696753502E0
4.745081809E0,3.830969334E-1,-6.667625904E-1,-1.533515930E0
4.754654809E0,4.250721335E-1,-8.094370365E-1,-1.443304539E0
4.764542809E0,4.193836451E-1,-9.504916668E-1,-1.463939667E0
4.777053809E0,3.562785387E-1,-1.103013515E0,-1.609432697E0
4.794667809E0,3.133866787E-1,-1.195361137E0,-1.652840614E0
4.806391809E0,1.509217024E-1,-1.380210161E0,-1.838685989E0
4.814664809E0,1.991176605E-1,-1.416207790E0,-1.814523697E0
4.825457809E0,2.058832645E-1,-1.439321995E0,-1.808215618E0
4.834672809E0,3.367652893E-1,-1.504505873E0,-1.721372604E0
4.844646809E0,5.480667353E-1,-1.590709448E0,-1.553217411E0
4.855032809E0,6.704411507E-1,-1.634226322E0,-1.357913017E0
4.864894809E0,7.112703323E-1,-1.612772465E0,-7.455692291E-1
4.875906809E0,5.939053297E-1,-1.651209831E0,-3.644056320E-1
4.884560809E0,4.830608368E-1,-1.671263456E0,-7.924175262E-2
4.894558809E0,2.397283316E-1,-1.597694159E0,6.161880493E-2
4.904600809E0,-1.169525385E-1,-1.440139771E0,1.052341461E-1
4.914621809E0,-5.111600161E-1,-1.204526901E0,1.386957169E-1
4.924606809E0,-6.517081261E-1,-1.078719139E0,3.626346588E-1
4.934557809E0,-3.045880795E-1,-1.148934603E0,8.429622650E-1
4.944466809E0,2.714370489E-1,-1.136846542E0,1.529776573E0
4.954558809E0,8.473341465E-1,-1.073869705E0,2.146224022E0
4.964730809E0,1.410921335E0,-1.065342903E0,3.047070503E0
4.974662809E0,1.873616576E0,-1.118013144E0,4.542236328E0
4.984697809E0,2.143482208E0,-1.516295433E0,6.023743629E0
4.994529809E0,1.793041945E0,-1.921498060E0,6.269419670E0
5.005935809E0,6.914895773E-1,-1.796964645E0,5.570134163E0
5.014539809E0,-6.147869825E-1,-1.484176874E0,4.309213638E0
5.025250809E0,-1.516949415E0,-1.107322693E0,3.117913246E0
5.034593809E0,-1.954578876E0,-6.043846607E-1,2.264035225E0
5.044475809E0,-1.979575872E0,-3.701949120E-2,1.642210960E0
5.054504809E0,-1.604078054E0,4.359982014E-1,1.089701653E0
5.064593809E0,-9.091289043E-1,6.011314392E-1,5.389451981E-1
5.075878809E0,-3.482737541E-1,7.757594585E-1,-1.755619049E-2
5.084516809E0,2.661228180E-2,9.295403957E-1,-4.580183029E-1
5.094540809E0,3.126348257E-1,9.164655209E-1,-7.305660248E-1
5.104909809E0,4.404475689E-1,8.979208469E-1,-8.777933121E-1
5.115018809E0,3.789186478E-1,8.771827221E-1,-8.395671844E-1
5.124544809E0,1.204743385E-1,8.349809647E-1,-6.053342819E-1
5.136192809E0,-2.067077160E-1,7.910578251E-1,-3.564834595E-1
5.144607809E0,-4.347813129E-1,7.118010521E-1,-1.319303513E-1
5.154781809E0,-5.671808720E-1,6.016683578E-1,7.274627686E-2
5.164476809E0,-5.810198784E-1,4.652230740E-1,2.931852341E-1
5.174508809E0,-3.796627522E-1,2.197253704E-1,5.854625702E-1
5.186749809E0,-1.786971092E-1,1.246218681E-1,7.797813416E-1
5.200176809E0,1.992760897E-1,-8.565735817E-2,9.966888428E-1
5.214544809E0,3.030271530E-1,-1.474864483E-1,9.977941513E-1
5.224673809E0,3.675349951E-1,-2.328789234E-1,8.981904984E-1
5.234547809E0,3.956619501E-1,-3.005468845E-1,7.339887619E-1
5.244668809E0,3.572831154E-1,-3.410449028E-1,4.715518951E-1
5.256683809E0,3.175390959E-1,-3.932044506E-1,2.001762390E-1
5.264918809E0,2.793577909E-1,-4.783294201E-1,-9.139728546E-2
5.274928809E0,2.365465164E-1,-5.671844482E-1,-3.808841705E-1
5.284469809E0,1.990630627E-1,-6.654400826E-1,-7.120761871E-1
5.294473809E0,2.322480679E-1,-7.919704914E-1,-1.048042297E0
5.306984809E0,3.094661236E-1,-1.125460386E0,-1.700246334E0
5.319957809E0,4.050598145E-1,-1.329663515E0,-1.945596695E0
5.334498809E0,4.283972979E-1,-1.492196083E0,-2.192965031E0
5.344744809E0,4.540358782E-1,-1.636172175E0,-2.323946953E0
5.354864809E0,4.937862158E-1,-1.746408224E0,-2.394115925E0
5.364622809E0,6.345826387E-1,-1.864706039E0,-2.358282089E0
5.375999809E0,7.969667912E-1,-1.973849893E0,-1.983464241E0
5.384753809E0,8.218824863E-1,-2.014422417E0,-1.961842537E0
5.394553809E0,8.779036999E-1,-2.078104973E0,-1.655536175E0
5.404618809E0,7.989464998E-1,-2.083032131E0,-1.018399239E0
5.414707809E0,2.986336946E-1,-1.743423700E0,-5.695400238E-1
5.424529809E0,-1.419558525E-1,-1.340780973E0,-1.400127411E-1
5.434586809E0,-4.956808090E-1,-9.551262856E-1,3.301019669E-1
5.447789809E0,-6.369941235E-1,-7.493832111E-1,4.757671356E-1
5.464566809E0,3.890699148E-1,-8.638796806E-1,6.572113037E-1
5.476282809E0,1.080950499E0,-4.850387573E-1,1.131407738E0
5.484694809E0,1.794327021E0,-2.705252171E-1,1.906231880E0
5.494596809E0,2.237277746E0,-4.180977345E-1,3.734017372E0
5.504734809E0,2.344431877E0,-7.754969597E-1,6.135937691E0
5.514664809E0,1.819417715E0,-1.209487677E0,7.799318314E0
5.525387809E0,4.861161709E-1,-1.083124638E0,7.987515450E0
5.534725809E0,-1.236604333E0,-5.343568325E-1,7.076394081E0
5.545108809E0,-2.389129162E0,2.818393707E-2,5.899913788E0
5.554841809E0,-2.658280611E0,6.861803532E-1,4.742634773E0
5.564795809E0,-1.981111646E0,9.957745075E-1,4.053733826E0
5.575550809E0,-7.619847059E-1,1.230959415E0,3.605810165E0
5.584674809E0,3.186079264E-1,1.617294312E0,2.561638832E0
5.594684809E0,1.276871085E0,1.878681183E0,1.185104370E0
5.604957809E0,1.989119887E0,1.911260605E0,-3.298854828E-2
5.614721809E0,2.440880060E0,1.971807957E0,-1.304299831E0
5.625258809E0,2.553663254E0,1.845848083E0,-1.634696484E0
5.634718809E0,2.308650494E0,1.669071198E0,-1.541560173E0
5.645591809E0,1.826212406E0,1.650719404E0,-1.761663437E0
5.654599809E0,1.604275703E0,1.526296139E0,-2.612666130E0
5.664780809E0,1.078800917E0,1.531098127E0,-1.786674976E0
5.674594809E0,3.760257363E-1,1.186078787E0,-7.597675323E-1
5.685072809E0,-1.613159180E-1,1.335599422E0,-4.869003296E-1
5.696692809E0,-4.649412632E-1,1.004399538E0,-4.056081772E-1
5.705138809E0,-5.548840761E-1,8.473870754E-1,-1.537523270E-1
5.715063809E0,-5.892977715E-1,7.477185726E-1,-4.025526047E-1
5.725443809E0,-4.739609957E-1,5.507519245E-1,-9.517469406E-1
5.734597809E0,-3.406443596E-1,4.239945412E-1,-1.668715000E0
5.745092809E0,-2.348998785E-1,3.286550045E-1,-2.317568779E0
5.754780809E0,-1.753671169E-1,2.435669899E-1,-2.770356178E0
5.764677809E0,-1.765645742E-1,1.705942154E-1,-3.073699474E0
5.776131809E0,-2.114595175E-1,8.464264870E-2,-3.206037998E0
5.784791809E0,-2.426199913E-1,-8.089542389E-3,-3.163152695E0
5.794601809E0,-2.986532450E-1,-1.082739830E-1,-2.963361263E0
5.804914809E0,-3.518390656E-1,-1.815550327E-1,-2.612120152E0
5.814785809E0,-3.556888103E-1,-2.590599060E-1,-2.303617001E0
5.825676809E0,-2.878868580E-1,-3.692307472E-1,-1.901196957E0
5.834858809E0,-1.205290556E-1,-5.151576996E-1,-1.443103790E0
5.845612809E0,5.629026890E-2,-6.657230854E-1,-1.033688545E0
5.855009809E0,1.514259577E-1,-7.665550709E-1,-5.701007843E-1
5.865046809E0,1.843786240E-1,-8.590385914E-1,-2.240524292E-1
5.876025809E0,9.025847912E-2,-1.062801361E0,1.279802322E-1
5.884819809E0,1.310617924E-1,-1.066742897E0,1.371812820E-1
5.894618809E0,1.372153759E-1,-1.124100685E0,6.267356873E-2
5.904661809E0,3.454529047E-1,-1.182504177E0,-5.152797699E-2
5.914809809E0,6.699985266E-1,-1.262028217E0,-2.824039459E-1
5.924701809E0,1.018934488E0,-1.340671062E0,-5.309867859E-1
5.934777809E0,1.314362645E0,-1.439349890E0,-1.054003239E0
5.944466809E0,1.592394590E0,-1.536283016E0,-1.020105839E0
5.954652809E0,1.779980063E0,-1.785541534E0,-1.180633068E0
5.964695809E0,1.572547674E0,-1.843136072E0,-9.820933342E-1
5.974719809E0,1.215598702E0,-1.802843571E0,-6.386718750E-1
5.985372809E0,8.186693192E-1,-1.732998848E0,-3.423433304E-1
5.994702809E0,2.961126566E-1,-1.559587955E0,-2.630958557E-1
6.005100809E0,-1.009047031E-1,-1.370682001E0,-2.617692947E-1
6.014609809E0,1.143693924E-3,-1.223601341E0,-2.396869659E-2
6.024613809E0,7.879102230E-1,-1.416671753E0,5.995903015E-1
6.034539809E0,1.727610588E0,-1.377767086E0,1.454511642E0
6.044764809E0,2.418282986E0,-1.074639082E0,2.011131287E0
6.054862809E0,2.890100241E0,-1.158077955E0,3.099453926E0
6.064599809E0,2.944462776E0,-1.436222076E0,4.716901779E0
6.075815809E0,2.523047209E0,-1.945654869E0,6.048582077E0
6.084951809E0,1.420679927E0,-2.383505821E0,6.425086975E0
6.094659809E0,-4.092633724E-1,-2.223391056E0,5.965024948E0
6.104599809E0,-2.087880135E0,-1.749025464E0,5.103817940E0
6.114610809E0,-3.268642187E0,-1.067807794E0,4.409142494E0
6.125854809E0,-3.674374580E0,-2.974960804E-1,3.881927490E0
6.134619809E0,-3.396072626E0,3.732702732E-1,3.383667946E0
6.144871809E0,-2.526972294E0,8.556175232E-1,2.726745605E0
6.154578809E0,-1.373165131E0,1.086240530E0,2.021038055E0
6.164623809E0,-3.467152119E-1,1.281912088E0,1.182698250E0
6.174616809E0,5.057606697E-1,1.336853743E0,2.506990433E-1
6.184685809E0,1.088646293E0,1.305077553E0,-7.096519470E-1
6.196139809E0,1.326618671E0,1.362853527E0,-1.409583569E0
6.204803809E0,1.315873861E0,1.360758305E0,-1.805197716E0
6.215181809E0,1.106294274E0,1.284924269E0,-1.825876713E0
6.225131809E0,7.719672918E-1,1.151460171E0,-1.576084614E0
6.234547809E0,5.423291922E-1,9.909870625E-1,-1.025056839E0
6.244726809E0,3.921848536E-1,7.748157978E-1,-3.705911636E-1
6.254599809E0,2.563092709E-1,5.750668049E-1,3.437023163E-1
6.265058809E0,1.499781609E-1,3.918492794E-1,1.007928848E0
6.274589809E0,1.277332306E-1,2.149155140E-1,1.525758743E0
6.284691809E0,1.634968519E-1,5.356407166E-2,1.749220848E0
6.294755809E0,1.969593763E-1,-6.624031067E-2,1.714967728E0
6.305629809E0,2.506622076E-1,-1.516296864E-1,1.478551865E0
6.317723809E0,3.687305450E-1,-2.445621490E-1,1.067496300E0
6.334893809E0,6.242598295E-1,-3.871443272E-1,1.348781586E-2
6.344760809E0,6.919111013E-1,-4.612686634E-1,-4.569549561E-1
6.354615809E0,7.533099651E-1,-5.435800552E-1,-9.065027237E-1
6.364837809E0,8.745943904E-1,-6.406128407E-1,-1.232348919E0
6.374624809E0,9.630954266E-1,-7.795686722E-1,-1.537155151E0
6.387453809E0,9.401634932E-1,-8.875062466E-1,-1.742796898E0
6.404937809E0,8.454662561E-1,-1.138383627E0,-1.969301224E0
6.415072809E0,7.964429855E-1,-1.300013423E0,-1.994070530E0
6.424875809E0,7.199857235E-1,-1.454010010E0,-1.973089695E0
6.434636809E0,6.579694748E-1,-1.587014079E0,-1.900717735E0
6.444671809E0,6.062759161E-1,-1.719836473E0,-1.763740540E0
6.454793809E0,6.034959555E-1,-1.860952258E0,-1.636368752E0
6.464575809E0,6.239367723E-1,-1.982076406E0,-1.509452820E0
6.474936809E0,7.010465860E-1,-2.052750826E0,-1.354238510E0
6.485289809E0,8.894225359E-1,-1.982024312E0,-7.120532990E-1
6.494488809E0,9.786278009E-1,-1.954640865E0,-4.472160339E-1
6.504971809E0,9.351419210E-1,-1.949089050E0,-2.937002182E-1
6.515421809E0,6.635317802E-1,-1.810157061E0,-2.520885468E-1
6.524649809E0,3.342380524E-1,-1.583248854E0,-2.304477692E-1
6.534610809E0,-6.744718552E-2,-1.248937845E0,-4.804000854E-1
6.544944809E0,-4.731283188E-1,-8.042225838E-1,-9.335355759E-1
6.555231809E0,-5.411195755E-1,-4.262928963E-1,-1.143481731E0
6.564531809E0,1.586620808E-1,-4.548923969E-1,-1.107716084E0
6.576253809E0,1.025209904E0,-2.214314938E-1,-7.391719818E-1
6.584624809E0,1.590466261E0,6.383731365E-1,-2.146663666E-1
6.594942809E0,2.128070831E0,8.050708771E-1,1.175736427E0
6.604662809E0,2.358200312E0,2.823984623E-1,3.670013428E0
6.614627809E0,1.713806868E0,-1.420235634E-1,6.734152794E0
6.625545809E0,3.642278910E-1,-6.365156174E-2,8.619564056E0
6.637487809E0,-1.081443191E0,2.700388432E-1,8.704629898E0
6.654550809E0,-2.704842567E0,1.220721722E0,5.775067329E0
6.664616809E0,-1.964018822E0,1.321527481E0,4.655401230E0
6.674752809E0,-8.252840042E-1,1.364842892E0,4.015970230E0
6.684698809E0,1.285676956E-1,1.952116728E0,2.585354805E0
6.695862809E0,1.196008682E0,2.130611181E0,1.041203499E0
6.704626809E0,1.994590282E0,2.141819000E0,-2.193927765E-1
6.714511809E0,2.334545851E0,2.177992344E0,-1.384096622E0
6.724635809E0,2.355001450E0,2.108124733E0,-2.154303074E0
6.734603809E0,2.060404778E0,1.913474321E0,-2.574070454E0
6.745045809E0,1.571092725E0,1.748012066E0,-2.649072170E0
6.754706809E0,1.034049034E0,1.572438240E0,-2.294723988E0
6.764995809E0,5.250436068E-1,1.425780058E0,-1.756436825E0
6.774597809E0,1.534110308E-1,1.273258448E0,-1.295406342E0
6.787832809E0,-8.640635014E-2,1.111973524E0,-8.812503815E-1
6.805073809E0,-3.638274670E-1,8.792212009E-1,-7.068786621E-1
6.816138809E0,-4.678834677E-1,7.721574306E-1,-8.867263794E-1
6.824749809E0,-5.574307442E-1,6.742908955E-1,-1.181408882E0
6.834734809E0,-6.215823889E-1,6.074876785E-1,-1.570590019E0
6.844673809E0,-6.526687145E-1,6.123232841E-1,-1.886715889E0
6.854596809E0,-6.309865713E-1,6.098556519E-1,-2.124514580E0
6.864574809E0,-5.223287344E-1,6.255218983E-1,-2.272401333E0
6.874822809E0,-2.875753641E-1,5.958614349E-1,-2.263491154E0
6.885254809E0,-3.252720833E-2,5.440957546E-1,-2.134011745E0
6.894496809E0,2.762380838E-1,5.235474110E-1,-1.912904263E0
6.905306809E0,6.159194708E-1,5.062346458E-1,-1.574521065E0
6.914583809E0,9.468591213E-1,4.324951172E-1,-1.237082481E0
6.924847809E0,1.229179382E0,3.782429695E-1,-6.273574829E-1
6.934753809E0,1.464092970E0,2.795505524E-1,-3.594779968E-1
6.944864809E0,1.585525036E0,1.385543346E-1,-1.368303299E-1
6.956164809E0,1.344986677E0,4.016065598E-2,-2.198019028E-1
6.964789809E0,1.322370291E0,-2.024817467E-2,-2.070846558E-1
6.974889809E0,9.488536119E-1,-3.360676765E-2,-2.128744125E-1
6.984649809E0,5.899057388E-1,-4.769682884E-2,-1.372013092E-1
6.994569809E0,4.262852669E-1,-1.472961903E-1,-9.359359741E-2
7.005074809E0,3.990983963E-1,-1.903846264E-1,-7.190704346E-3
7.014643809E0,6.065814495E-1,-1.726708412E-1,2.615022659E-1
7.024564809E0,1.409169197E0,-2.286441326E-1,4.423103333E-1
7.034706809E0,1.851163030E0,-3.610720634E-1,5.900545120E-1
7.045686809E0,2.099250317E0,-5.427191257E-1,7.790508270E-1
7.054572809E0,2.101441145E0,-8.002533913E-1,8.659620285E-1
7.065685809E0,1.729645848E0,-1.132111073E0,8.463544846E-1
7.074657809E0,1.048248768E0,-1.347476244E0,6.591978073E-1
7.084557809E0,2.453480959E-1,-1.526595712E0,3.996887207E-1
7.097199809E0,-3.938113451E-1,-1.692612410E0,2.181482315E-1
7.114828809E0,-1.684802651E0,-1.320307493E0,-1.172647476E-1
7.124690809E0,-1.971879363E0,-1.085225105E0,-1.360206604E-1
7.134695809E0,-1.968633890E0,-1.009035587E0,4.511451721E-2
7.144956809E0,-1.397967696E0,-1.091763258E0,5.540571213E-1
7.155113809E0,-3.467394114E-1,-1.399988174E0,1.302303314E0
7.165993809E0,5.779315829E-1,-1.572474957E0,1.939558029E0
7.174647809E0,1.086613417E0,-1.500773668E0,2.799814224E0
7.184787809E0,1.504273057E0,-1.655669212E0,3.999468803E0
7.194553809E0,1.488039017E0,-1.984457493E0,4.946604729E0
7.205005809E0,7.624745369E-1,-2.183158636E0,5.169240952E0
7.216447809E0,-5.984046459E-1,-2.052691698E0,4.653664589E0
7.224562809E0,-1.959366679E0,-1.812053561E0,3.727901459E0
7.234918809E0,-2.920614719E0,-1.426602006E0,2.856012344E0
7.244649809E0,-3.284584522E0,-1.020351887E0,2.142361641E0
7.254736809E0,-3.210782051E0,-6.244518757E-1,1.506853104E0
7.264598809E0,-2.697042227E0,-2.340030670E-1,7.993888855E-1
7.274548809E0,-1.932985067E0,-8.414983749E-3,-5.054473877E-5
7.285858809E0,-1.178685427E0,1.266129017E-1,-8.103017807E-1
7.294838809E0,-5.500077009E-1,2.405269146E-1,-1.498568535E0
7.305297809E0,1.194489002E-2,2.714533806E-1,-2.029899120E0
7.314766809E0,4.253455997E-1,2.937049866E-1,-2.306099892E0
7.324935809E0,6.720422506E-1,2.937748432E-1,-2.225870609E0
7.335520809E0,7.044077516E-1,2.931523323E-1,-2.005174637E0
7.344663809E0,5.960775018E-1,2.345447540E-1,-1.718575001E0
7.354594809E0,4.515424371E-1,8.179306984E-2,-1.323535919E0
7.364767809E0,2.528849840E-1,-3.896760941E-2,-1.002293587E0
7.374657809E0,1.463099718E-1,-1.792557240E-1,-7.194194794E-1
7.385146809E0,1.177841425E-1,-2.690851688E-1,-4.539966583E-1
7.394847809E0,1.817951202E-1,-3.190386295E-1,-2.043571472E-1
7.405713809E0,2.908486724E-1,-3.673682213E-1,-1.318626404E-1
7.415214809E0,3.467732668E-1,-3.702025414E-1,-2.320642471E-1
7.424593809E0,4.017821550E-1,-3.600568771E-1,-3.860569000E-1
7.434653809E0,4.579901099E-1,-3.426225185E-1,-4.234685898E-1
7.444768809E0,5.058424473E-1,-3.159968853E-1,-4.287128448E-1
7.455218809E0,6.005246639E-1,-3.163552284E-1,-3.272275925E-1
7.464791809E0,7.357817888E-1,-3.715198040E-1,-2.714462280E-1
7.474577809E0,7.894389033E-1,-4.874806404E-1,-3.346071243E-1
7.484689809E0,7.011687756E-1,-5.742495060E-1,-5.702972412E-1
7.494716809E0,4.990484715E-1,-6.384351254E-1,-8.644323349E-1
7.505096809E0,2.326087356E-1,-6.717314720E-1,-1.171380997E0
7.516507809E0,-1.966799498E-1,-8.359799385E-1,-1.154426575E0
7.524677809E0,-1.739354134E-1,-8.561003208E-1,-1.145072937E0
7.534515809E0,-3.174402714E-1,-9.158961773E-1,-9.184370041E-1
7.544651809E0,-4.298413992E-1,-1.017354250E0,-6.545076370E-1
7.554581809E0,-5.672301054E-1,-1.103727341E0,-2.730627060E-1
7.564708809E0,-6.893312931E-1,-1.215282679E0,-2.053699493E-1
7.574614809E0,-5.628890991E-1,-1.175480843E0,-1.881771088E-1
7.585434809E0,-4.131326675E-1,-1.216524363E0,-1.201343536E-1
7.594591809E0,-3.355071545E-1,-1.194734931E0,8.921432495E-2
7.604729809E0,-3.618850708E-1,-1.059886694E0,2.342338562E-1
7.614506809E0,-3.981181383E-1,-1.005455256E0,4.602537155E-1
7.624737809E0,-4.874278307E-1,-1.016505718E0,6.676082611E-1
7.634618809E0,-6.277561188E-1,-1.002811670E0,7.481336594E-1
7.644630809E0,-7.786726952E-1,-9.015629292E-1,7.120180130E-1
7.654607809E0,-7.097930908E-1,-2.726392746E-1,5.107049942E-1
7.664543809E0,-5.932168961E-1,9.938883781E-2,4.168682098E-1
7.674724809E0,-3.572474718E-1,2.969474792E-1,3.109083176E-1
7.684527809E0,1.681125164E-2,3.481786251E-1,3.712110519E-1
7.696072809E0,5.420249701E-1,5.560936928E-1,7.195882797E-1
7.704766809E0,8.673117161E-1,1.029347420E0,1.276268005E0
7.714570809E0,1.053145885E0,1.230568409E0,2.314591408E0
7.724556809E0,9.856795669E-1,1.281795502E0,3.911904335E0
7.734543809E0,7.103922963E-1,1.217574596E0,5.381518364E0
7.744589809E0,3.043212891E-1,1.108302832E0,5.936369896E0
7.754577809E0,-3.044254780E-1,1.269864321E0,5.665948868E0
7.764529809E0,-7.915238142E-1,1.578186631E0,4.797755241E0
7.774851809E0,-7.655049562E-1,1.679576278E0,3.868391037E0
7.784728809E0,-4.229480028E-1,1.895109773E0,2.855453491E0
7.794941809E0,-1.441025734E-2,2.261724472E0,1.817082405E0
7.806057809E0,4.670433402E-1,2.385473728E0,9.671173096E-1
7.814522809E0,7.980718017E-1,2.357751846E0,6.810398102E-1
7.825470809E0,8.217907548E-1,2.363689899E0,1.407613754E-1
7.834962809E0,6.466343999E-1,2.255128145E0,-5.420331955E-1
7.844792809E0,3.423584104E-1,2.092227936E0,-1.125822067E0
7.855971809E0,3.856658936E-3,2.005303621E0,-1.619171619E0
7.864536809E0,-2.457877398E-1,1.917752981E0,-1.952267647E0
7.874555809E0,-4.363875389E-1,1.830784082E0,-2.162671566E0
7.884543809E0,-5.727593899E-1,1.752009511E0,-2.334705830E0
7.894600809E0,-6.427218914E-1,1.598627925E0,-2.473273754E0
7.904922809E0,-6.867283583E-1,1.486940861E0,-2.623263836E0
7.914612809E0,-7.433630228E-1,1.418670297E0,-2.801621437E0
7.924532809E0,-7.519403696E-1,1.327506185E0,-2.968579769E0
7.934541809E0,-7.446883917E-1,1.197723627E0,-3.160526752E0
7.945033809E0,-8.025180101E-1,1.184085727E0,-3.367352009E0
7.955137809E0,-7.992634773E-1,1.196496725E0,-3.415174007E0
7.965096809E0,-7.280166149E-1,1.149945498E0,-3.358058929E0
7.974932809E0,-7.263711691E-1,1.114180803E0,-3.237920284E0
7.985058809E0,-7.195842266E-1,1.127386332E0,-3.011209011E0
7.994566809E0,-6.656548977E-1,1.129682660E0,-2.770807266E0
8.004811809E0,-5.384250879E-1,1.154160619E0,-2.517041683E0
8.014640809E0,-3.092193604E-1,1.149321795E0,-2.274017334E0
8.025097809E0,-6.619429588E-2,1.115686893E0,-2.065897942E0
8.034858809E0,1.410207748E-1,1.081458092E0,-1.819993019E0
8.046514809E0,3.597877026E-1,9.421067238E-1,-1.323933601E0
8.054825809E0,3.773217201E-1,9.267585278E-1,-1.318075180E0
8.065023809E0,4.363414645E-1,7.870783806E-1,-1.061765671E0
8.074630809E0,4.393119812E-1,6.682496071E-1,-7.229671478E-1
8.084893809E0,3.727302551E-1,6.016595364E-1,1.680107117E-1
8.096278809E0,5.753374100E-2,5.026693344E-1,5.950050354E-1
8.104646809E0,-9.298443794E-3,4.694814682E-1,9.875040054E-1
8.114723809E0,7.576739788E-2,4.446258545E-1,1.269682884E0
8.124665809E0,2.647954226E-1,4.419786930E-1,1.371831894E0
8.138022809E0,4.864801168E-1,4.687528610E-1,1.419729233E0
8.155955809E0,1.189758301E0,3.947713375E-1,1.255130768E0
8.165763809E0,1.696227908E0,2.728102207E-1,1.175883293E0
8.174659809E0,2.121543169E0,1.467611790E-1,1.039224625E0
8.185941809E0,2.422685623E0,-6.648850441E-2,9.498100281E-1
8.195254809E0,2.402629375E0,-2.234020233E-1,7.819309235E-1
8.205038809E0,2.119851351E0,-3.056817055E-1,6.154136658E-1
8.215256809E0,1.681613088E0,-3.843152523E-1,3.346338272E-1
8.224707809E0,1.164706707E0,-4.414372444E-1,7.481288910E-2
8.234839809E0,6.201894283E-1,-3.689172268E-1,-1.867971420E-1
8.244619809E0,2.137790918E-1,-2.305586338E-1,-2.565898895E-1
8.254687809E0,1.360766888E-1,-2.342336178E-1,-1.436929703E-1
8.264751809E0,4.262967110E-1,-3.780848980E-1,1.399011612E-1
8.277996809E0,8.485512733E-1,-5.017092228E-1,4.779825211E-1
8.294545809E0,1.250449657E0,-5.643634796E-1,1.511424065E0
8.304902809E0,1.086441755E0,-6.517839432E-1,2.480768204E0
8.314699809E0,6.588385105E-1,-7.404860258E-1,3.762075424E0
8.325147809E0,1.060664654E-1,-8.097226620E-1,4.524746895E0
8.334579809E0,-6.656572819E-1,-7.221010923E-1,4.717130661E0
8.344880809E0,-1.454309702E0,-4.256496429E-1,4.400602341E0
8.358088809E0,-1.921253324E0,-7.585144043E-2,3.868609428E0
8.374651809E0,-1.589506388E0,7.129909992E-1,2.946949959E0
8.385526809E0,-1.089426875E0,1.109969974E0,2.464865685E0
8.395126809E0,-5.175889730E-1,1.295263052E0,1.917901993E0
8.404661809E0,-4.113113880E-2,1.317649961E0,1.187833786E0
8.414533809E0,1.909434795E-1,1.252473831E0,2.649002075E-1
8.424637809E0,2.138652802E-1,1.226103306E0,-7.268495560E-1
8.434739809E0,1.146638393E-1,1.285716772E0,-1.596072197E0
8.444864809E0,8.475542068E-2,1.254419088E0,-2.313517570E0
8.454655809E0,1.545084715E-1,1.200326443E0,-2.866183758E0
8.464747809E0,2.151525021E-1,1.162584424E0,-3.362741470E0
8.474720809E0,3.024992943E-1,1.105564713E0,-3.753854752E0
8.484647809E0,3.793733120E-1,1.027730227E0,-4.004722595E0
8.494834809E0,3.771507740E-1,9.900705814E-1,-4.074726582E0
8.504767809E0,2.984952927E-1,9.563839436E-1,-3.941984653E0
8.515839809E0,2.592223883E-1,8.793206215E-1,-3.746680737E0
8.524655809E0,1.824177504E-1,7.526974678E-1,-3.498930454E0
8.534620809E0,4.124331474E-2,6.678733826E-1,-3.279269695E0
8.544610809E0,-7.887911797E-2,5.570547581E-1,-3.025364399E0
8.555096809E0,-1.358498335E-1,4.556615353E-1,-2.664855480E0
8.566108809E0,-2.109287977E-1,3.562262058E-1,-1.871975422E0
8.574522809E0,-2.404128313E-1,3.482024670E-1,-1.874800205E0
8.585465809E0,-3.187867403E-1,2.144598961E-1,-1.190913200E0
8.594549809E0,-3.447033167E-1,2.117574215E-1,-1.194246292E0
8.604572809E0,-3.995882273E-1,1.921191216E-1,-8.744859695E-1
8.614602809E0,-4.153525829E-1,1.497356892E-1,-5.830287933E-1
8.624879809E0,-4.687169790E-1,1.183500290E-1,-4.294767380E-1
8.638186809E0,-9.073182344E-1,2.164893150E-1,-3.904619217E-1
8.654562809E0,-1.418880105E0,2.756280899E-1,-4.981985092E-1
8.664474809E0,-1.586070895E0,3.970329762E-1,-5.218048096E-1
8.674575809E0,-1.645693064E0,5.423605442E-1,-4.745922089E-1
8.684732809E0,-1.567762971E0,7.164745331E-1,-2.354888916E-1
8.694674809E0,-1.320173144E0,8.663043976E-1,1.601505280E-1
8.705013809E0,-1.027876019E0,9.104034901E-1,6.307325363E-1
8.714497809E0,-8.107677698E-1,8.627035618E-1,1.075781822E0
8.724692809E0,-6.933768988E-1,7.657804489E-1,1.483638763E0
8.734548809E0,-6.413372755E-1,6.353955269E-1,1.725851059E0
8.744646809E0,-5.934352875E-1,4.199054241E-1,1.794254303E0
8.754615809E0,-6.172089577E-1,2.331256866E-1,1.735784531E0
8.764739809E0,-6.583260298E-1,1.687505245E-1,1.607892036E0
8.774834809E0,-6.468772888E-1,1.445715427E-1,1.397768021E0
8.784531809E0,-6.114056110E-1,2.243201733E-1,1.145810127E0
8.794699809E0,-6.630518436E-1,5.219249725E-1,7.947578430E-1
8.804896809E0,-6.979553699E-1,7.823407650E-1,5.198793411E-1
8.814549809E0,-7.108130455E-1,9.363687038E-1,3.743200302E-1
8.824726809E0,-6.459923983E-1,1.069499493E0,1.864233017E-1
8.834844809E0,-3.153506517E-1,1.118940115E0,-3.086853027E-2
8.844995809E0,3.607709408E-1,9.854235649E-1,-1.533641815E-1
8.854791809E0,1.093048811E0,9.231643677E-1,7.146930695E-2
8.866093809E0,1.481098771E0,9.622912407E-1,8.879079819E-1
8.874616809E0,1.567222714E0,1.012749910E0,2.470001221E0
8.884767809E0,1.384735703E0,9.827605486E-1,4.810829163E0
8.894649809E0,1.013554573E0,8.034911156E-1,6.627877235E0
8.904583809E0,3.448967338E-1,7.664735317E-1,7.231238365E0
8.916043809E0,-5.368703604E-1,1.077953577E0,6.862955093E0
8.924578809E0,-1.071316361E0,1.355640173E0,5.979036331E0
8.934651809E0,-1.067791104E0,1.518843889E0,4.672348976E0
8.944609809E0,-5.815438032E-1,1.817194700E0,3.161302567E0
8.954564809E0,3.219791651E-1,1.771093607E0,2.372545242E0
8.964575809E0,9.516624808E-1,1.954729438E0,1.407402992E0
8.974676809E0,1.525516272E0,2.164709568E0,-1.266174316E-1
8.984947809E0,1.894956470E0,2.289983273E0,-1.870996475E0
8.994763809E0,2.045514584E0,2.265875340E0,-2.964975357E0
9.005638809E0,1.979204655E0,2.191186428E0,-3.562674522E0
9.014665809E0,1.738235116E0,2.075030804E0,-3.890309334E0
9.026074809E0,1.471384525E0,1.920307159E0,-3.973858356E0
9.034665809E0,1.130073547E0,1.749694228E0,-3.906483173E0
9.044799809E0,7.291565537E-1,1.557873964E0,-3.679905891E0
9.059388809E0,4.022371769E-2,1.100294232E0,-2.853901386E0
9.075011809E0,-2.404851913E-1,9.292824268E-1,-2.554996490E0
9.086258809E0,-7.063826323E-1,6.482294798E-1,-2.268126011E0
9.095164809E0,-6.849600077E-1,6.502845287E-1,-2.265126705E0
9.104837809E0,-7.945439816E-1,5.839467049E-1,-2.308675289E0
9.115767809E0,-8.311951160E-1,5.979269743E-1,-2.680179119E0
9.124615809E0,-8.088314533E-1,6.220065355E-1,-2.670621395E0
9.134829809E0,-6.552449465E-1,6.456975937E-1,-2.822012424E0
9.145003809E0,-5.255748034E-1,6.960179806E-1,-3.051699638E0
9.154608809E0,-4.015369415E-1,7.256729603E-1,-3.039630890E0
9.165284809E0,-3.438785076E-1,7.966408730E-1,-3.014826298E0
9.174925809E0,-4.205124378E-1,8.027982712E-1,-2.807677269E0
9.184717809E0,-3.762817383E-1,7.238335609E-1,-2.553033352E0
9.194650809E0,-2.715660334E-1,6.276717186E-1,-2.313343525E0
9.205064809E0,-1.810942888E-1,6.137959957E-1,-2.079610348E0
9.214653809E0,-1.175286770E-1,6.218662262E-1,-1.836574554E0
9.224812809E0,-8.808088303E-2,6.485812664E-1,-1.517786980E0
9.236105809E0,-1.840516329E-1,6.732807159E-1,-1.160358429E0
9.244533809E0,-3.729515076E-1,7.075579166E-1,-7.608137131E-1
9.254670809E0,-6.422457695E-1,7.639613152E-1,-4.402084351E-1
9.264615809E0,-8.354575634E-1,7.850139141E-1,-1.250028610E-1
9.275071809E0,-8.560396433E-1,7.228937149E-1,2.386388779E-1
9.286039809E0,-5.967388153E-1,5.843520164E-1,5.910129547E-1
9.294819809E0,-2.848083973E-1,5.515787601E-1,8.983659744E-1
9.304699809E0,5.025124550E-2,4.826421738E-1,1.325073242E0
9.314597809E0,4.634115696E-1,4.017922878E-1,1.838918686E0
9.324643809E0,8.604025841E-1,2.277729511E-1,2.416749954E0
9.334879809E0,1.142953634E0,-5.138778687E-2,2.884712219E0
9.344918809E0,1.081357241E0,-3.437457085E-1,2.983651161E0
9.356467809E0,6.742389202E-1,-6.140713692E-1,2.698599815E0
9.365270809E0,2.755677700E-2,-7.030236721E-1,2.156430244E0
9.374681809E0,-5.732157230E-1,-6.301562786E-1,1.482243538E0
9.385453809E0,-9.732818604E-1,-5.388674736E-1,8.205289841E-1
9.394678809E0,-1.280948877E0,-3.420236111E-1,2.246122360E-1
9.406140809E0,-1.376641512E0,-5.328631401E-2,-9.538841248E-2
9.414639809E0,-7.684106827E-1,-1.696324348E-1,5.214881897E-2
9.425221809E0,9.913647175E-2,-3.760106564E-1,6.835308075E-1
9.435346809E0,7.429779768E-1,-4.068324566E-1,1.358191490E0
9.444841809E0,1.111563444E0,-5.068829060E-1,2.189045906E0
9.454622809E0,1.294491053E0,-7.489882708E-1,3.232176781E0
9.465248809E0,1.104712129E0,-1.045638323E0,4.264807701E0
9.474924809E0,4.963463545E-1,-1.165027380E0,4.985097885E0
9.484767809E0,-4.083224535E-1,-1.111420512E0,4.814216614E0
9.496389809E0,-1.331552505E0,-9.245822430E-1,4.048583031E0
9.504541809E0,-1.951425314E0,-6.410241127E-1,3.121294975E0
9.514589809E0,-2.171342373E0,-2.924466133E-1,2.372587204E0
9.524819809E0,-2.099278927E0,1.388671398E-1,1.740955353E0
9.534638809E0,-1.705494881E0,4.902852774E-1,1.140822411E0
9.544617809E0,-1.191462278E0,6.525604725E-1,4.344015121E-1
9.554813809E0,-8.104457855E-1,7.372756004E-1,-3.139925003E-1
9.564738809E0,-5.989564657E-1,8.171420097E-1,-1.031657219E0
9.574641809E0,-5.053558350E-1,8.859521151E-1,-1.594208241E0
9.584597809E0,-4.772280455E-1,9.596751928E-1,-2.009140968E0
9.595200809E0,-4.556597471E-1,1.020171642E0,-2.243502140E0
9.605519809E0,-3.982998133E-1,1.070330024E0,-2.340170383E0
9.614756809E0,-2.644129992E-1,1.082569838E0,-2.259645462E0
9.624710809E0,-1.057773829E-1,1.043161988E0,-2.054407597E0
9.634589809E0,1.391478777E-1,8.624453545E-1,-1.745183945E0
9.644693809E0,2.946423292E-1,7.133898735E-1,-1.452441692E0
9.654565809E0,3.991119862E-1,5.622596741E-1,-1.296354294E0
9.664596809E0,4.315618277E-1,3.514103889E-1,-1.281116486E0
9.676167809E0,3.789682388E-1,7.814979553E-2,-1.307169914E0
9.685110809E0,3.632830381E-1,-2.889513969E-2,-1.428936958E0
9.694700809E0,3.373018503E-1,-5.543994904E-2,-1.695206642E0
9.704753809E0,2.456880808E-1,-1.194007397E-1,-2.035012722E0
9.714582809E0,2.100095749E-1,-1.352400780E-1,-2.368485928E0
9.725003809E0,2.311098576E-1,-1.663165092E-1,-2.510380745E0
9.734595809E0,2.498894930E-1,-2.001693249E-1,-2.478696346E0
9.745376809E0,2.454932928E-1,-2.193846703E-1,-2.242450714E0
9.754876809E0,2.332025766E-1,-3.224959373E-1,-1.918438435E0
9.764737809E0,1.625746489E-1,-4.025928974E-1,-1.689177990E0
9.774855809E0,8.997285366E-2,-4.448847771E-1,-1.582346916E0
9.784773809E0,3.571546078E-2,-4.583289623E-1,-1.635503769E0
9.796201809E0,5.095005035E-4,-4.909269810E-1,-1.807841778E0
9.804643809E0,-2.765583992E-2,-4.408082962E-1,-1.966457367E0
9.814662809E0,-7.003569603E-2,-3.394098282E-1,-1.985180855E0
9.828271809E0,-9.854805470E-2,-2.342946529E-1,-1.818975925E0
9.841923809E0,-2.450979948E-1,-1.721267700E-1,-1.093115807E0
9.854678809E0,-4.696869850E-1,-8.718729019E-2,-7.546386719E-1
9.864469809E0,-6.156681776E-1,-4.600524902E-3,-5.171718597E-1
9.874489809E0,-6.808607578E-1,1.957106590E-2,-4.950647354E-1
9.884838809E0,-6.701446772E-1,3.588628769E-2,-6.136751175E-1
9.894652809E0,-5.376099348E-1,4.122495651E-2,-6.871156693E-1
9.905115809E0,-2.404606342E-1,4.188799858E-2,-6.690130234E-1
9.916233809E0,2.029210329E-1,2.937984467E-2,-2.350578308E-1
9.925065809E0,7.979592085E-1,1.427769661E-2,3.512811661E-1
9.935061809E0,1.310064077E0,-2.276873589E-2,9.823894501E-1
9.944706809E0,1.586365700E0,-8.368015289E-3,1.504275322E0
9.954548809E0,1.579143286E0,1.698660851E-2,2.031739235E0
9.964687809E0,1.347667813E0,1.681685448E-2,2.619544029E0
9.974653809E0,8.662436008E-1,7.839107513E-2,3.187880516E0
9.984592809E0,2.764839530E-1,2.699487209E-1,3.724046707E0
9.994607809E0,-2.066061497E-1,5.496945381E-1,4.039456367E0
1.000517681E1,-4.398914576E-1,8.931376934E-1,4.310406685E0
1.001454081E1,-1.730083227E-1,1.210446119E0,4.459762573E0
1.002453181E1,4.848411679E-1,1.350016117E0,4.610498428E0
1.003455081E1,1.171918988E0,1.429697275E0,5.188365936E0
1.004474181E1,1.793574333E0,1.512156606E0,5.855963707E0
1.005463081E1,2.426570415E0,1.604842663E0,6.295773506E0
1.006553081E1,2.715903521E0,1.559877515E0,6.452453613E0
1.007484281E1,2.474301815E0,1.638118625E0,5.886536598E0
1.008467781E1,1.959421635E0,1.772109866E0,5.242691994E0
1.009467881E1,1.374762058E0,1.902918696E0,4.179141045E0
1.010472081E1,9.920825958E-1,2.013222694E0,3.077651024E0
1.011462981E1,8.664287329E-1,1.982216120E0,2.015627861E0
1.012482981E1,8.631681204E-1,1.981326103E0,1.088827133E0
1.013610781E1,8.595367670E-1,1.923675895E0,2.951765060E-1
1.014469481E1,7.219666243E-1,1.869618177E0,-4.304189682E-1
1.015457981E1,4.982178211E-1,1.714260817E0,-8.987264633E-1
1.016485581E1,2.197708040E-1,1.530256510E0,-1.323625565E0
1.017735081E1,-3.182137012E-1,1.158064365E0,-2.155275345E0
1.019460181E1,-5.479437113E-1,9.551693201E-1,-2.436841011E0
1.020842781E1,-8.614808917E-1,6.638960838E-1,-2.552124023E0
1.022462681E1,-8.385565281E-1,1.463139057E-1,-2.422928810E0
1.023453381E1,-8.609122038E-1,-3.271937370E-2,-2.329309464E0
1.024465481E1,-8.321717381E-1,-3.046419621E-1,-2.138773918E0
1.025467281E1,-8.161771297E-1,-4.285883904E-1,-2.145239830E0
1.026462681E1,-8.336330652E-1,-5.224279165E-1,-2.255456448E0
1.027636281E1,-8.941400051E-1,-5.954707861E-1,-2.408710003E0
1.028479381E1,-8.597683907E-1,-6.915264130E-1,-2.484156132E0
1.029484781E1,-7.934591174E-1,-7.134847641E-1,-2.533784389E0
1.030463581E1,-7.094107270E-1,-6.994619370E-1,-2.594031334E0
1.031490481E1,-5.797734857E-1,-6.690131426E-1,-2.622563362E0
1.032523581E1,-4.115287066E-1,-6.473709345E-1,-2.701288700E0
1.033469581E1,-2.659420967E-1,-5.991086960E-1,-2.836152077E0
1.034545081E1,-1.720433831E-1,-4.942531586E-1,-2.964921951E0
1.035462381E1,-2.142846584E-2,-4.017925262E-1,-3.153878212E0
1.036455381E1,1.180276871E-1,-3.126080036E-1,-3.306852818E0
1.037592181E1,2.052149177E-1,-1.579461098E-1,-3.407413483E0
1.038491681E1,2.655480504E-1,2.758550644E-2,-3.436361313E0
1.039457881E1,2.945516706E-1,1.769754887E-1,-3.381295204E0
1.040465881E1,3.135887384E-1,3.961074352E-1,-3.271982193E0
1.041525381E1,3.529836535E-1,5.954074860E-1,-3.064651489E0
1.042531681E1,4.668945968E-1,7.571861744E-1,-2.873182297E0
1.043504181E1,5.870929360E-1,8.743517399E-1,-2.747192860E0
1.044597881E1,6.654844284E-1,1.016033888E0,-2.647832870E0
1.045459681E1,6.695095301E-1,1.149825573E0,-2.476714134E0
1.046489381E1,6.750010252E-1,1.255130291E0,-2.129386425E0
1.047467081E1,8.235296011E-1,1.260779381E0,-1.596414566E0
1.048485681E1,9.962210059E-1,1.216570616E0,-1.028109550E0
1.049480581E1,1.015737414E0,1.276286364E0,-4.742984772E-1
1.050470081E1,7.961885929E-1,1.421375036E0,1.355934143E-1
1.051460081E1,5.187253952E-1,1.579317093E0,8.315935135E-1
1.052607581E1,2.625843883E-1,1.666144609E0,1.666361809E0
1.053455981E1,3.107439876E-1,1.613023996E0,2.695641518E0
1.054525281E1,6.786016226E-1,1.417793989E0,3.550867081E0
1.055475381E1,1.047914147E0,1.378205299E0,4.220487595E0
1.056478981E1,1.419784546E0,1.295555830E0,4.861410141E0
1.057709981E1,1.845199108E0,9.981040955E-1,5.348143578E0
1.058531681E1,1.954210758E0,5.541248322E-1,5.577897072E0
1.059468681E1,1.589849353E0,-2.227663994E-2,5.456556320E0
1.060461381E1,8.984729648E-1,-5.161106586E-1,5.101099014E0
1.061459781E1,2.010903955E-1,-8.734657764E-1,4.762190819E0
1.062541681E1,-4.135882854E-1,-1.123124838E0,4.523631096E0
1.063457481E1,-8.977643251E-1,-1.274617195E0,4.473313332E0
1.064613981E1,-1.115092158E0,-1.436444402E0,4.620125771E0
1.065465281E1,-1.095356584E0,-1.751991749E0,4.962087631E0
1.066506281E1,-1.066994190E0,-2.060822964E0,5.348319054E0
1.067459481E1,-1.079643846E0,-2.332087040E0,5.793398857E0
1.068503881E1,-1.159962893E0,-2.439078569E0,6.109421730E0
1.069670481E1,-1.280222416E0,-2.420953989E0,5.800127029E0
1.070479781E1,-1.327008605E0,-2.360584736E0,5.782966614E0
1.071459981E1,-1.252401352E0,-2.255682707E0,5.157072067E0
1.072471481E1,-1.076963305E0,-2.134537697E0,4.392384529E0
1.073452681E1,-9.021695256E-1,-1.885264516E0,3.601326942E0
1.074452081E1,-7.719469666E-1,-1.598077774E0,2.793455124E0
1.075478281E1,-5.508245826E-1,-1.380228043E0,1.855110168E0
1.076453881E1,-2.534230947E-1,-1.265606523E0,8.496780396E-1
1.077478781E1,1.876410842E-1,-9.469608068E-1,-1.220187187E0
1.078454881E1,3.905217052E-1,-8.443541527E-1,-2.222698689E0
1.079451581E1,6.003998518E-1,-7.966169119E-1,-3.202153206E0
1.080747781E1,7.902892828E-1,-7.494994402E-1,-4.083545208E0
1.082474381E1,9.998727441E-1,-5.585126877E-1,-5.672171593E0
1.083458581E1,1.040493011E0,-5.146639347E-1,-6.221843719E0
1.084480781E1,1.027913451E0,-4.741356373E-1,-6.601833820E0
1.085532581E1,9.676173925E-1,-4.410936832E-1,-6.832360744E0
1.086488281E1,8.941224217E-1,-3.662090302E-1,-6.862298489E0
1.087496081E1,8.698690534E-1,-3.520212173E-1,-6.747394085E0
1.088466781E1,8.164422512E-1,-3.920879364E-1,-6.436065674E0
1.089473681E1,6.837478876E-1,-4.494733810E-1,-6.002918720E0
1.090458581E1,6.287928224E-1,-5.424287319E-1,-5.117667198E0
1.091460881E1,5.513195992E-1,-6.787936687E-1,-4.086735725E0
1.092457781E1,2.898530960E-1,-7.698209286E-1,-3.065686226E0
1.093459481E1,2.205687761E-2,-8.422286510E-1,-2.036944389E0
1.094481181E1,-2.209808826E-1,-9.363415241E-1,-9.876432419E-1
1.095482681E1,-5.025429726E-1,-1.018305302E0,2.690505981E-2
1.096456081E1,-7.623367310E-1,-1.025113583E0,9.568347931E-1
1.097456281E1,-1.153675079E0,-8.863159418E-1,1.671398163E0
1.098454781E1,-1.655002356E0,-6.380724311E-1,2.316886902E0
1.099465281E1,-2.158273220E0,-3.463721275E-1,2.836505890E0
1.100506281E1,-2.532298088E0,-1.148418188E-1,3.204753876E0
1.101516781E1,-2.785772800E0,1.858077049E-1,3.364360809E0
1.102465881E1,-2.755535603E0,4.745575190E-1,3.343902588E0
1.103461181E1,-2.376073837E0,7.216073275E-1,3.231950760E0
1.104487881E1,-1.888697267E0,1.054304719E0,3.102797508E0
1.105470181E1,-1.399660587E0,1.325419188E0,3.016836166E0
1.106484481E1,-9.782533646E-1,1.526964188E0,2.890948296E0
1.107469481E1,-7.591280937E-1,1.719207406E0,2.771875381E0
1.108458281E1,-6.469969153E-1,1.889351606E0,2.582118988E0
1.109497881E1,-5.761744380E-1,1.996959329E0,2.318648338E0
1.110474381E1,-4.797020555E-1,2.080246449E0,2.050805092E0
1.111649381E1,-4.049398899E-1,2.103877783E0,1.664701462E0
1.112468181E1,9.735184908E-2,1.818756104E0,1.666925430E0
1.113541281E1,9.978513718E-1,1.231643438E0,1.951461792E0
1.114453081E1,1.736160040E0,8.746962547E-1,2.306992531E0
1.115457281E1,2.111892462E0,5.719846487E-1,2.779301643E0
1.116530281E1,2.095940113E0,6.310200691E-2,3.490809441E0
1.117461681E1,1.633154273E0,-5.139375925E-1,4.287216187E0
1.118507581E1,6.658550501E-1,-1.062701344E0,4.972138405E0
1.119461581E1,-4.552466273E-1,-1.466582298E0,5.431983948E0
1.120486581E1,-1.596503139E0,-1.563871384E0,5.410861015E0
1.121461781E1,-2.294879913E0,-1.605498433E0,5.091151237E0
1.122459481E1,-2.425835848E0,-1.661811113E0,4.639723778E0
1.123458081E1,-1.959126592E0,-1.650455952E0,4.147696495E0
1.124492481E1,-9.803015590E-1,-1.607188463E0,3.436516762E0
1.125697681E1,1.512908101E0,-1.339471340E0,1.533557892E0
1.127466281E1,2.801766634E0,-1.362119675E0,6.394033432E-1
1.128465981E1,3.853624344E0,-1.366301179E0,-3.108320236E-1
1.129471781E1,4.307995319E0,-1.229511738E0,-1.273650169E0
1.130463981E1,4.127347946E0,-9.161367416E-1,-2.191329479E0
1.131464881E1,2.955047369E0,-3.736876249E-1,-3.298868656E0
1.132450881E1,2.375187397E0,-3.083304167E-1,-3.280456543E0
1.133476881E1,1.938206553E0,-2.742537260E-1,-2.864322662E0
1.134474381E1,1.694542170E0,-2.852123976E-1,-2.236029625E0
1.135472381E1,1.486336350E0,-1.944023371E-1,-1.331104279E0
1.136513481E1,1.252364516E0,-1.627874374E-1,-6.693696976E-1
1.137463381E1,9.805085063E-1,-1.018496752E-1,-2.680702209E-1
1.138494181E1,6.709362864E-1,-3.175616264E-3,-1.715135574E-1
1.139709781E1,3.339644670E-1,1.256475449E-1,-4.288606644E-1
1.140652481E1,3.829950094E-2,2.399557829E-1,-8.689308167E-1
1.141467081E1,-1.160950065E-1,3.099937439E-1,-1.310162544E0
1.142495581E1,-1.270324588E-1,3.347244263E-1,-1.680627823E0
1.143465081E1,-1.507663727E-2,2.977015972E-1,-1.987139702E0
1.144454681E1,3.911322355E-2,2.664167881E-1,-2.170402527E0
1.145517281E1,8.152842522E-2,2.674056292E-1,-2.298995972E0
1.146537181E1,1.328139007E-1,1.935751438E-1,-2.346854687E0
1.147455181E1,1.851176918E-1,1.248240471E-1,-2.289923191E0
1.148527981E1,1.637565196E-1,4.443740845E-2,-2.186313152E0
1.149457881E1,1.040295660E-1,-3.672981262E-2,-2.071303368E0
1.150497581E1,-3.968772292E-2,-5.471682549E-2,-1.847858906E0
1.151455781E1,-1.228480041E-1,-7.259631157E-2,-1.579276085E0
1.152483581E1,-1.727723777E-1,-1.325562000E-1,-1.199205399E0
1.154226581E1,-2.670882344E-1,-1.094541550E-1,-6.769876480E-1
1.155460981E1,-3.062731028E-1,-5.688917637E-2,-5.904741287E-1
1.156449781E1,-3.677587211E-1,2.210259438E-2,-6.294012070E-1
1.157492181E1,-4.032813311E-1,1.175214052E-1,-7.184801102E-1
1.158481881E1,-3.984614611E-1,1.811102629E-1,-8.144626617E-1
1.159506181E1,-3.475394845E-1,2.153363228E-1,-9.181642532E-1
1.160495381E1,-3.399689198E-1,2.757862806E-1,-1.074834824E0
1.161452481E1,-3.329811096E-1,3.490538597E-1,-1.259504318E0
1.162515681E1,-3.016735911E-1,3.876581192E-1,-1.419503212E0
1.163488581E1,-2.716492414E-1,4.237875938E-1,-1.592548370E0
1.164457981E1,-2.302592397E-1,4.627373219E-1,-1.826665401E0
1.165780881E1,-1.670796275E-1,4.474456310E-1,-2.016688347E0
1.167458781E1,8.819812536E-2,4.505500793E-1,-2.007852077E0
1.168508381E1,2.831948400E-1,3.960697651E-1,-1.931457520E0
1.169457881E1,4.666451812E-1,3.957374096E-1,-1.863125801E0
1.170481881E1,6.588792205E-1,3.604359627E-1,-1.872960091E0
1.171456981E1,6.653923988E-1,3.303546906E-1,-1.958253384E0
1.172452681E1,7.977584004E-1,3.376333714E-1,-2.058599949E0
1.173506281E1,8.010698557E-1,3.261764050E-1,-2.059878826E0
1.174457781E1,8.252381086E-1,3.115019798E-1,-2.022209167E0
1.175454581E1,8.818084002E-1,2.553212643E-1,-1.934697151E0
1.176454381E1,9.002439380E-1,2.041442394E-1,-1.814396381E0
1.177446181E1,8.786450624E-1,1.624827385E-1,-1.614046097E0
1.178679681E1,7.145659924E-1,1.746079922E-1,-8.825368881E-1
1.179978831E1,6.607829332E-1,2.146987915E-1,-4.143381119E-1
1.181460381E1,6.138144732E-1,2.055437565E-1,2.838897705E-2
1.182515181E1,6.091921926E-1,1.652090549E-1,3.922386169E-1
1.183459681E1,6.296229959E-1,1.162199974E-1,6.745023727E-1
1.184457081E1,7.322382927E-1,6.430363655E-2,9.513511658E-1
1.185497981E1,9.410192966E-1,-2.372055054E-1,1.375557899E0
1.186806481E1,1.160144091E0,-4.377367496E-1,1.376603127E0
1.188487481E1,9.826833606E-1,-6.846110821E-1,1.432407379E0
1.189446781E1,5.973104835E-1,-7.875585556E-1,1.268935204E0
1.190461681E1,1.089327633E-1,-8.950154781E-1,1.024521828E0
1.191497481E1,-4.663295746E-1,-9.765255451E-1,5.680561066E-1
1.192467181E1,-9.491814971E-1,-9.797472954E-1,2.153549194E-1
1.193752481E1,-1.329904079E0,-8.369140625E-1,9.623622894E-2
1.195464481E1,-1.458457470E0,-6.277520657E-1,6.721763611E-1
1.196447881E1,-8.168677688E-1,-8.786499500E-1,1.402459145E0
1.197448081E1,1.078390479E-1,-1.214154482E0,2.153655052E0
1.198460781E1,6.668703556E-1,-1.262598753E0,3.057610512E0
1.199469081E1,1.078184843E0,-1.134226799E0,3.905632973E0
1.200466781E1,1.336653829E0,-1.283454895E0,4.781931877E0
1.201450781E1,1.102457762E0,-1.418430328E0,5.288931847E0
1.202459581E1,3.203673661E-1,-1.267750144E0,5.331896782E0
1.203484381E1,-4.815634787E-1,-1.018363714E0,4.827804565E0
1.204504581E1,-1.048511624E0,-7.980213165E-1,3.849384308E0
1.205457581E1,-1.307695031E0,-6.520111561E-1,2.736791611E0
1.206462681E1,-1.304362297E0,-4.120287895E-1,1.446124077E0
1.207513881E1,-1.050844073E0,-2.544143200E-1,3.359718323E-1
1.208456681E1,-6.924239993E-1,-3.516006470E-2,-6.504144669E-1
1.209457981E1,-3.677179813E-1,2.701914310E-1,-1.401823521E0
1.210594481E1,-8.105567098E-2,4.582779408E-1,-1.952366829E0
1.211495381E1,6.465347111E-2,5.281407833E-1,-2.336644173E0
1.212461381E1,6.784996390E-2,5.443320274E-1,-2.597833157E0
1.213585281E1,-2.953200042E-2,4.865882397E-1,-2.720828056E0
1.214485281E1,-1.612707973E-1,3.607532978E-1,-2.826453209E0
1.215850481E1,-3.412548602E-1,2.614002228E-1,-2.709187508E0
1.217472281E1,-6.444346905E-1,1.768491268E-1,-2.031378269E0
1.218560181E1,-7.428153157E-1,1.442136765E-1,-1.581037521E0
1.219451181E1,-7.620458007E-1,1.332757473E-1,-1.168445587E0
1.220546081E1,-7.058013678E-1,5.739307404E-2,-8.950719833E-1
1.221464381E1,-6.338874102E-1,-2.335381508E-2,-7.197380066E-1
1.222503581E1,-5.771820545E-1,-6.791162491E-2,-7.329721451E-1
1.223511681E1,-4.870135188E-1,-1.148583889E-1,-7.951107025E-1
1.224474781E1,-4.115119874E-1,-1.722362041E-1,-9.199419022E-1
1.225463981E1,-3.506484032E-1,-2.190425396E-1,-1.032614708E0
1.226462981E1,-2.947314084E-1,-2.570452690E-1,-1.205574036E0
1.227501981E1,-2.631339133E-1,-3.499538898E-1,-1.250946045E0
1.228607581E1,-3.226129115E-1,-4.672517776E-1,-1.362806320E0
1.229453581E1,-5.196112990E-1,-5.559313297E-1,-1.325374603E0
1.230486881E1,-7.727315426E-1,-6.249928474E-1,-1.212557316E0
1.231455581E1,-1.018835783E0,-7.032251358E-1,-1.103001595E0
1.232483881E1,-1.239689827E0,-7.469799519E-1,-9.757986069E-1
1.233457481E1,-1.348824263E0,-7.260122299E-1,-8.162012100E-1
1.234474781E1,-1.370229006E0,-7.618713379E-1,-6.904811859E-1
1.235503881E1,-1.330841422E0,-7.719910145E-1,-6.081609726E-1
1.236605681E1,-1.013059735E0,-7.051553726E-1,-3.199205399E-1
1.237456781E1,-9.865993261E-1,-7.138338089E-1,-3.171720505E-1
1.238453681E1,-6.368348598E-1,-6.699051857E-1,-6.788063049E-2
1.239452981E1,-8.583313972E-2,-5.182669163E-1,8.577556610E-1
1.240464481E1,-2.061147243E-2,-4.450888634E-1,1.183207512E0
1.241642981E1,-9.827495366E-2,-3.944897652E-1,1.474700928E0
1.242458181E1,-2.851237059E-1,-3.729963303E-1,1.481509209E0
1.243544181E1,-6.081462502E-1,-2.207610607E-1,1.304001808E0
1.244516681E1,-9.538837671E-1,4.989099503E-2,1.146401405E0
1.245485281E1,-1.322173595E0,4.168860912E-1,8.189086914E-1
1.246460981E1,-1.412722111E0,8.171892166E-1,6.953935623E-1
1.247452481E1,-9.477436543E-1,1.000226974E0,8.718175888E-1
1.248549781E1,-2.740072608E-1,1.319763422E0,1.429574013E0
1.249464481E1,4.146736860E-1,1.583874702E0,2.446040154E0
1.250465681E1,1.140157819E0,1.515371561E0,3.734377861E0
1.251496381E1,1.881797075E0,1.337422132E0,5.532998085E0
1.252464581E1,2.359670639E0,1.066099167E0,6.987995148E0
1.253632681E1,2.286640406E0,1.102494717E0,7.368799210E0
1.254514481E1,1.831283569E0,1.310874462E0,6.992696762E0
1.255496081E1,1.425429821E0,1.481089830E0,5.944091797E0
1.256494781E1,8.273745179E-1,1.692845583E0,4.419482231E0
1.257464281E1,7.672323585E-1,1.392242908E0,3.164379120E0
1.258474881E1,6.698002219E-1,1.469112873E0,1.979718208E0
1.259450481E1,5.653453469E-1,1.643083334E0,7.059040070E-1
1.260458581E1,5.767824054E-1,1.633852720E0,-2.945375443E-1
1.261460881E1,5.675817728E-1,1.556660175E0,-1.115834236E0
1.262468881E1,5.076943040E-1,1.489053011E0,-1.775289059E0
1.263472381E1,4.181278944E-1,1.285914660E0,-2.259756088E0
1.264526981E1,3.110366464E-1,9.736607075E-1,-2.474932194E0
1.265457581E1,1.804574132E-1,7.192759514E-1,-2.720413685E0
1.266555781E1,-2.398961782E-2,6.235949993E-1,-3.019082069E0
1.267493781E1,-1.568554640E-1,4.925324917E-1,-3.067959309E0
1.268469581E1,-2.908058763E-1,3.382513523E-1,-2.981539249E0
1.269469981E1,-3.982522190E-1,2.477176189E-1,-2.868144512E0
1.270465481E1,-4.325674474E-1,1.265985966E-1,-2.704548359E0
1.271465081E1,-4.291874766E-1,6.784439087E-3,-2.358961105E0
1.272639681E1,-4.784211516E-1,-8.261775970E-2,-2.455969810E0
1.273459581E1,-5.182638168E-1,-1.396763325E-1,-2.456376553E0
1.274462381E1,-5.149870515E-1,-1.776151657E-1,-2.303068161E0
1.275457381E1,-4.248477519E-1,-2.008991241E-1,-2.273530960E0
1.276475281E1,-3.876739740E-1,-2.240989208E-1,-2.366064548E0
1.277470481E1,-3.791023493E-1,-1.465425491E-1,-2.515033722E0
1.278582781E1,-2.571270168E-1,-1.099240780E-1,-2.641793251E0
1.279502081E1,-4.798018932E-2,-8.237433434E-2,-2.743141651E0
1.280612881E1,2.144956589E-1,-5.644059181E-2,-2.760218620E0
1.281473381E1,4.765446782E-1,-2.565908432E-2,-2.666946888E0
1.282559581E1,7.534898520E-1,-1.047849655E-3,-2.578180790E0
1.283457981E1,9.456772208E-1,1.739692688E-2,-2.487925529E0
1.284454381E1,1.057838321E0,2.958011627E-2,-2.379698753E0
1.285463781E1,1.120664358E0,3.513503075E-2,-2.372121811E0
1.286493781E1,1.167243004E0,1.614189148E-2,-2.346412182E0
1.287652581E1,1.112566829E0,5.002212524E-2,-2.153954029E0
1.288479381E1,1.160854578E0,3.308868408E-2,-2.149594784E0
1.289464681E1,1.123387933E0,1.203625202E-1,-1.870531559E0
1.290458481E1,1.155732870E0,1.778542995E-1,-1.580766201E0
1.291506081E1,1.227968693E0,3.968939781E-1,-1.139122009E0
1.292466581E1,1.274669170E0,5.669107437E-1,-1.009641647E0
1.293451981E1,1.348908901E0,7.600450516E-1,-1.022088051E0
1.294523281E1,1.414821982E0,9.201896191E-1,-1.065490246E0
1.295456181E1,1.509898782E0,1.040229321E0,-1.038118362E0
1.296455281E1,1.690662622E0,1.121305227E0,-8.368368149E-1
1.297486381E1,1.940874338E0,1.045149565E0,-1.867141724E-1
1.298473981E1,2.185726404E0,8.529169559E-1,6.750068665E-1
1.299463281E1,2.410889864E0,6.193544865E-1,1.591016769E0
1.300475481E1,2.608502865E0,3.430371284E-1,2.352225304E0
1.301452581E1,2.647514343E0,-8.116722107E-3,2.946141243E0
1.302503081E1,2.381908655E0,-3.745901585E-1,3.215738297E0
1.303512181E1,1.770599484E0,-6.958224773E-1,3.149142265E0
1.304507381E1,9.649620056E-1,-9.624881744E-1,2.783406258E0
1.305678381E1,1.150422394E-1,-1.042809725E0,2.232632637E0
1.306499281E1,-7.302745581E-1,-8.719367981E-1,1.774169922E0
1.307480681E1,-1.397689581E0,-6.109378338E-1,1.432110786E0
1.308481181E1,-1.702741385E0,-5.082924366E-1,1.402624130E0
1.309477681E1,-1.636573672E0,-5.827996731E-1,1.706147194E0
1.310540181E1,-1.348936319E0,-7.106208801E-1,2.333853722E0
1.311486081E1,-8.917568326E-1,-9.277935028E-1,3.281149864E0
1.312626181E1,-3.624120355E-1,-1.090757608E0,4.112316132E0
1.313584281E1,-6.362265348E-2,-1.257758260E0,5.126904488E0
1.314469781E1,-4.084408283E-5,-1.423269868E0,5.909417152E0
1.315461281E1,-3.708510399E-1,-1.381407022E0,6.152447701E0
1.316523981E1,-1.035940886E0,-1.192562580E0,5.802324295E0
1.317461381E1,-1.757775903E0,-9.601979256E-1,4.909658432E0
1.318467281E1,-2.295708895E0,-6.617702246E-1,3.678366661E0
1.319717981E1,-2.496248484E0,-3.774766922E-1,2.471334457E0
1.321463181E1,-2.144359112E0,2.172522545E-1,3.773269653E-1
1.322466381E1,-1.667547703E0,3.820581436E-1,-4.327125549E-1
1.323465481E1,-1.216481209E0,4.355964661E-1,-1.173359871E0
1.324618981E1,-9.212977886E-1,4.954755306E-1,-1.868053913E0
1.325537081E1,-7.866453528E-1,5.492606163E-1,-2.402332783E0
1.326529781E1,-6.943941116E-1,5.360660553E-1,-2.827127934E0
1.327561781E1,-6.736594439E-1,5.048778057E-1,-3.078180790E0
1.328490781E1,-7.295068502E-1,5.566360950E-1,-3.230989456E0
1.329454581E1,-7.532321215E-1,5.273718834E-1,-3.284383774E0
1.330522781E1,-7.373096943E-1,5.027770996E-1,-3.260633945E0
1.331523481E1,-7.460948229E-1,4.674093723E-1,-3.133155346E0
1.332464581E1,-7.391431332E-1,3.836436272E-1,-2.892794609E0
1.333479281E1,-6.577355266E-1,2.568192482E-1,-2.656399727E0
1.334519881E1,-5.706896782E-1,1.036911011E-1,-2.596848965E0
1.335470981E1,-5.243849754E-1,5.024313927E-2,-2.574037075E0
1.336575081E1,-4.975965321E-1,-3.019094467E-3,-2.542088032E0
1.337459981E1,-4.958215058E-1,-7.070946693E-2,-2.534162521E0
1.338579881E1,-5.194810629E-1,-1.068181992E-1,-2.572837353E0
1.339470781E1,-5.066864491E-1,-1.405596733E-1,-2.593106747E0
1.340468281E1,-4.890722334E-1,-1.754615307E-1,-2.590543270E0
1.341459881E1,-4.830685258E-1,-1.764659882E-1,-2.510863304E0
1.342552681E1,-4.205587208E-1,-1.694104671E-1,-2.297973156E0
1.343644181E1,-2.719556391E-1,-2.141280174E-1,-1.726336002E0
1.344468981E1,-2.733907402E-1,-2.246584892E-1,-1.723321438E0
1.345512881E1,-4.021064937E-1,-2.007417679E-1,-1.256073952E0
1.346451981E1,-3.948904574E-1,-7.344627380E-2,-1.021512032E0
1.347501381E1,-3.331127465E-1,3.919219971E-2,-9.221134186E-1
1.348462281E1,-1.485457569E-1,-1.086544991E-2,-8.593425751E-1
1.349457781E1,-6.460891664E-2,8.902549744E-2,-6.065244675E-1
1.350484981E1,2.020345256E-2,1.938824654E-1,-1.193284988E-1
1.351469381E1,1.569564342E-1,1.582829952E-1,4.754590988E-1
1.352465081E1,1.208388656E-1,2.205514908E-1,7.728338242E-1
1.353459481E1,-4.017568380E-2,2.546114922E-1,8.259239197E-1
1.354505581E1,-1.538823843E-1,1.374402046E-1,9.804592133E-1
1.355757581E1,-2.499699593E-1,5.998587608E-2,1.402083397E0
1.357467781E1,-2.282115668E-1,6.602001190E-2,1.134614944E0
1.358470781E1,8.139024675E-2,-1.127710342E-1,1.046373367E0
1.359466181E1,3.222148418E-1,-1.479144096E-1,1.131589890E0
1.360532581E1,4.554627538E-1,-1.292142868E-1,1.333262444E0
1.361457781E1,5.246819258E-1,-1.425778866E-1,1.588334084E0
1.362525681E1,4.787410498E-1,-1.603918076E-1,1.887649536E0
1.363463681E1,2.336790711E-1,-1.048717499E-1,2.161395073E0
1.364490681E1,-7.260255516E-2,-5.466032028E-2,2.479668617E0
1.365464881E1,-3.109702468E-2,-1.763801575E-1,3.012105942E0
1.366468581E1,2.964643240E-1,-3.047363758E-1,3.558718681E0
1.367631281E1,7.994220853E-1,-1.506695747E-1,3.971499443E0
1.368460981E1,1.422363877E0,-3.672790527E-2,4.673740387E0
1.369483681E1,2.209321022E0,1.389958858E-1,5.486594200E0
1.370481181E1,2.992473841E0,7.082939148E-3,6.322012901E0
1.371451181E1,3.312289000E0,-1.153759956E-1,6.422328949E0
1.372561881E1,2.885773659E0,1.106035709E-1,5.914207458E0
1.373495281E1,2.017400265E0,5.002481937E-1,5.225881577E0
1.374503081E1,1.170634985E0,8.235676289E-1,4.181687355E0
1.375532381E1,7.861960530E-1,7.928130627E-1,2.974463463E0
1.376458981E1,4.404441416E-1,8.077750206E-1,1.934920311E0
1.377454681E1,1.280959845E-1,9.256937504E-1,8.202190399E-1
1.378534081E1,-4.149657488E-2,1.021355867E0,1.063423157E-1
1.379599581E1,-6.975352764E-2,1.025320530E0,-2.432689667E-1
1.380582281E1,-1.234135330E-1,1.112842560E0,-5.409536362E-1
1.381470181E1,-5.210322142E-2,1.088168859E0,-1.188926697E0
1.382488481E1,7.544833422E-2,9.634323120E-1,-1.408346176E0
1.383453581E1,-2.630104423E-1,9.543373585E-1,-1.068393707E0
1.384452981E1,-5.212925076E-1,8.127849102E-1,-1.023962975E0
1.385455281E1,-6.524332762E-1,7.085130215E-1,-1.319680214E0
1.386462181E1,-7.824238539E-1,5.786759853E-1,-1.364047050E0
1.387505681E1,-7.514545918E-1,3.688242435E-1,-1.627235413E0
1.388450981E1,-6.987289190E-1,2.776849270E-1,-2.120108128E0
1.389457581E1,-5.919606686E-1,1.267011166E-1,-2.418560505E0
1.390710681E1,-2.357921600E-1,-2.710008621E-2,-2.692139149E0
1.392462881E1,-1.434716284E-1,-1.727056503E-1,-2.725295544E0
1.393456781E1,-1.410363019E-1,-2.451992035E-1,-2.753935814E0
1.394461681E1,-2.224345356E-1,-2.890889645E-1,-2.906342030E0
1.395637381E1,-4.315425158E-1,-2.429397106E-1,-3.004895687E0
1.396453581E1,-3.737779260E-1,-2.744073868E-1,-2.998667240E0
1.397467281E1,-3.150089383E-1,-2.289116383E-1,-2.870870113E0
1.398452981E1,-1.907928437E-1,-1.240601540E-1,-2.728537560E0
1.399448181E1,6.476524472E-2,-5.950713158E-2,-2.454986572E0
1.400466381E1,6.741771698E-1,1.010391712E-1,-2.034048557E0
1.401463281E1,8.578439355E-1,1.962401867E-1,-2.114025116E0
1.402456181E1,9.618538618E-1,2.118525505E-1,-2.277337074E0
1.403450281E1,9.812796116E-1,2.297205925E-1,-2.439982414E0
1.404677381E1,9.877695441E-1,2.477970123E-1,-2.611251354E0
1.406004381E1,1.014672399E0,2.788670063E-1,-2.564779758E0
1.407467381E1,1.063384652E0,3.435065746E-1,-2.302246571E0
1.408451381E1,1.131315827E0,3.946056366E-1,-1.846939087E0
1.409474181E1,1.198792100E0,4.328937531E-1,-1.338530540E0
1.410475281E1,1.191386461E0,4.857745171E-1,-8.062496185E-1
1.411455081E1,1.186851382E0,5.765616894E-1,-2.890748978E-1
1.412472581E1,1.277009606E0,6.995978355E-1,2.819166183E-1
1.413454781E1,1.481648326E0,7.384445667E-1,7.520484924E-1
1.414469081E1,1.651986837E0,7.599577904E-1,1.092179298E0
1.415457181E1,1.637368798E0,8.293793201E-1,1.348556519E0
1.416471281E1,1.529715657E0,8.192274570E-1,1.725811958E0
1.417462681E1,1.054974198E0,6.696746349E-1,2.112111092E0
1.418490081E1,9.484675527E-1,4.111135006E-1,2.421788216E0
1.419604181E1,9.504908323E-1,9.864544868E-2,2.571510315E0
1.420496481E1,9.672712684E-1,-2.205688953E-1,2.438488007E0
1.421457781E1,9.401966333E-1,-5.551016331E-1,2.067000389E0
1.422472381E1,8.112715483E-1,-8.190424442E-1,1.709202766E0
1.423457781E1,4.616543651E-1,-9.926059246E-1,1.269343376E0
1.424465481E1,-8.354753256E-2,-1.098113775E0,8.018655777E-1
1.425478681E1,-7.122207284E-1,-1.153109074E0,4.247322083E-1
1.426512281E1,-1.383158088E0,-1.121311903E0,2.072048187E-1
1.427460581E1,-1.973486781E0,-1.132691145E0,2.355890274E-1
1.428453281E1,-2.296020746E0,-1.210969687E0,5.298833847E-1
1.429462481E1,-2.102814198E0,-1.465562105E0,1.239827156E0
1.430456681E1,-1.514670849E0,-1.721738815E0,2.076816559E0
1.431663981E1,-9.162645936E-1,-1.867598057E0,3.023241043E0
1.432476181E1,-3.994475007E-1,-1.906546950E0,4.238109589E0
1.433456881E1,-3.470635414E-2,-2.107316494E0,5.222416878E0
1.434495281E1,-4.748684168E-2,-2.328191757E0,5.823966980E0
1.435461381E1,-6.162076592E-1,-2.334362507E0,5.800470352E0
1.436612581E1,-1.569078445E0,-2.002909422E0,5.194746971E0
1.437501981E1,-2.475678205E0,-1.541070580E0,4.416381836E0
1.438534481E1,-2.850878477E0,-1.208220840E0,3.567367554E0
1.439456281E1,-2.679261446E0,-8.851412535E-1,2.700012207E0
1.440473181E1,-2.271215200E0,-4.453513622E-1,1.972518921E0
1.441454081E1,-1.544007301E0,-4.267168045E-2,1.286420822E0
1.442467381E1,-7.503516674E-1,1.395854950E-1,4.862890244E-1
1.443456381E1,-1.765600145E-1,2.127890587E-1,-3.389577866E-1
1.444497981E1,6.986099482E-2,3.490955830E-1,-1.044108391E0
1.445635281E1,5.331897736E-2,4.690964222E-1,-2.173058033E0
1.446472281E1,9.134534001E-2,4.500207901E-1,-2.169734478E0
1.447463281E1,-9.168767929E-2,5.065240860E-1,-2.626920223E0
1.448455681E1,-2.786802948E-1,5.350718498E-1,-3.071686745E0
1.449454581E1,-3.499585390E-1,4.841001034E-1,-3.409515381E0
1.450506681E1,-3.406014442E-1,4.530732632E-1,-3.916090965E0
1.451450381E1,-3.357524574E-1,4.188640118E-1,-3.907004356E0
1.452505181E1,-3.715759516E-1,1.653647423E-1,-4.004392147E0
1.453455281E1,-3.743227720E-1,1.376953125E-1,-3.861243248E0
1.454491381E1,-4.768067896E-1,-2.137370110E-1,-3.546146870E0
1.455623681E1,-5.553576946E-1,-3.188729286E-1,-3.018357277E0
1.456483681E1,-5.886604786E-1,-4.489455223E-1,-2.407720566E0
1.457504281E1,-5.465242863E-1,-5.742790699E-1,-1.802677631E0
1.458504081E1,-5.604589581E-1,-6.663558483E-1,-1.361056328E0
1.459462081E1,-5.601496696E-1,-7.367484570E-1,-1.109535217E0
1.460622681E1,-5.130957365E-1,-7.835562229E-1,-1.016063690E0
1.461453681E1,-2.917215228E-1,-8.150224686E-1,-1.112312317E0
1.462482781E1,3.213167191E-3,-8.374354839E-1,-1.333842278E0
1.463508781E1,2.291112542E-1,-7.907145023E-1,-1.561155796E0
1.464490781E1,4.341868460E-1,-6.785979271E-1,-1.646346569E0
1.465677681E1,5.733228326E-1,-6.071455479E-1,-1.592448235E0
1.467465281E1,3.456640244E-1,-6.294074059E-1,-1.231600761E0
1.468562981E1,5.870163441E-2,-6.574416161E-1,-8.941679001E-1
1.469458381E1,-2.057853192E-1,-6.630322933E-1,-5.395545959E-1
1.470557881E1,-3.101999164E-1,-6.926648617E-1,-2.369756699E-1
1.471460881E1,-2.678628564E-1,-6.672503948E-1,-3.116989136E-2
1.472493081E1,-4.168868065E-2,-6.537115574E-1,1.584835052E-1
1.473738581E1,2.357044816E-1,-6.851847172E-1,2.493915558E-1
1.475506581E1,5.767487884E-1,-7.458639145E-1,1.273085594E0
1.476481781E1,6.288576126E-1,-8.257958889E-1,1.361925125E0
1.477479081E1,5.753489733E-1,-9.400131702E-1,1.177959442E0
1.478537681E1,3.905269802E-1,-1.025591850E0,1.224158287E0
1.479463381E1,1.270264089E-1,-1.009401321E0,1.355341911E0
1.480520581E1,-1.886592656E-1,-9.164404869E-1,1.401383400E0
1.481460881E1,-5.137844086E-1,-6.463804245E-1,1.314401627E0
1.482458681E1,-8.906500340E-1,-3.066308498E-1,1.284753799E0
1.483454981E1,-1.038589120E0,-1.081042290E-1,1.179509163E0
1.484471481E1,-6.177195311E-1,-2.121353149E-1,1.320431709E0
1.485664081E1,7.584069669E-2,7.121515274E-2,1.591642380E0
1.486485681E1,7.081167698E-1,9.760584831E-1,1.819570541E0
1.487468081E1,1.689216733E0,9.733400345E-1,2.989284515E0
1.488457881E1,2.346904039E0,8.080604076E-1,4.889959335E0
1.489454981E1,2.652772427E0,5.361926556E-1,6.838994980E0
1.490456581E1,2.492893696E0,9.934806824E-2,7.999579430E0
1.491453281E1,1.564118147E0,1.514241695E-1,8.043882370E0
1.492536681E1,7.571843266E-2,6.416902542E-1,7.374697685E0
1.493459181E1,-1.106925368E0,9.617228508E-1,6.404194832E0
1.494501281E1,-1.653480053E0,1.013665199E0,5.238712311E0
1.495478181E1,-1.906302929E0,1.265700221E0,4.009610176E0
1.496452681E1,-1.786243081E0,1.505419731E0,2.814990044E0
1.497467881E1,-1.463643074E0,1.579891801E0,1.826728821E0
1.498520081E1,-9.489969015E-1,1.471196413E0,7.372884750E-1
1.499476381E1,-6.791567206E-1,1.526253343E0,-4.267225266E-1
1.500471181E1,-4.414812922E-1,1.404971361E0,-1.541240692E0
1.501585981E1,-3.730010986E-1,1.260793567E0,-2.156686306E0
1.502451881E1,-3.941206932E-1,1.213570833E0,-2.146028042E0
1.503492581E1,-2.657621801E-1,9.074153900E-1,-2.278818130E0
1.504458081E1,-5.342186689E-1,1.070305824E0,-2.496011734E0
1.505459881E1,-5.645248294E-1,8.338654041E-1,-3.326644421E0
1.506453081E1,-4.142337143E-1,4.456224442E-1,-3.566200733E0
1.507475381E1,-6.180437207E-1,3.471565247E-1,-3.725241184E0
1.508687381E1,-7.361374497E-1,2.749493122E-1,-3.723676205E0
1.510465581E1,-1.076496959E0,-1.572108269E-2,-3.452334404E0
1.511453881E1,-1.368839264E0,-1.285576820E-1,-3.333202839E0
1.512482881E1,-1.657033920E0,-2.159042358E-1,-3.124977112E0
1.513453481E1,-1.870437264E0,-2.976746559E-1,-2.942610741E0
1.514476781E1,-1.925453663E0,-3.604698181E-1,-2.866885185E0
1.515623781E1,-1.819191575E0,-3.773448467E-1,-2.808155060E0
1.516485181E1,-1.598606586E0,-3.670704365E-1,-2.804484844E0
1.517552581E1,-1.311846375E0,-3.298678398E-1,-2.730025291E0
1.518459381E1,-9.855693579E-1,-2.718935013E-1,-2.645196438E0
1.519452481E1,-6.614436507E-1,-2.349188328E-1,-2.638198853E0
1.520555481E1,-3.597539067E-1,-2.623810768E-1,-2.579199314E0
1.521468181E1,-1.924327761E-1,-3.247334957E-1,-2.468093872E0
1.522530581E1,-2.424228638E-1,-3.276591301E-1,-2.167056561E0
1.523453481E1,-4.572437108E-1,-2.177512646E-1,-1.598223686E0
1.524545681E1,-6.807193756E-1,-1.342048645E-1,-9.149551392E-1
1.525474181E1,-9.108498096E-1,-1.139132977E-1,-2.979612350E-1
1.526497881E1,-1.194283724E0,3.079438210E-2,1.272544861E-1
1.527544881E1,-1.287839293E0,1.739630699E-1,5.343132019E-1
1.528461781E1,-1.104853988E0,2.117776871E-1,9.118194580E-1
1.529494181E1,-6.620125771E-1,2.030038834E-1,1.362331390E0
1.530495981E1,9.383785725E-2,8.344101906E-2,1.980387688E0
1.531489081E1,1.072932005E0,-1.928279400E-1,2.569701195E0
1.532556381E1,1.928618312E0,-4.351761341E-1,3.173321724E0
1.533455981E1,2.495437860E0,-7.659583092E-1,3.665390968E0
1.534551781E1,2.625574589E0,-1.166952372E0,3.903855324E0
1.535491781E1,2.135541439E0,-1.510986805E0,3.943895340E0
1.536469881E1,1.090544462E0,-1.648436546E0,3.733357430E0
1.537467781E1,3.690963984E-2,-1.724916220E0,3.502292633E0
1.538485281E1,-8.082474470E-1,-1.647606134E0,3.360222816E0
1.539588381E1,-1.462914944E0,-1.353986025E0,3.345183372E0
1.540466681E1,-1.611362338E0,-1.268149376E0,3.544311523E0
1.541484381E1,-1.160011649E0,-1.328222275E0,3.889056206E0
1.542476181E1,-3.532620668E-1,-1.492953658E0,4.293491364E0
1.543452481E1,3.011306226E-1,-1.546862364E0,4.608353615E0
1.544836481E1,1.335523248E0,-1.727396727E0,5.087537766E0
1.546464581E1,1.155085802E0,-1.511883855E0,4.846478462E0
1.547475981E1,6.633638144E-1,-1.221800089E0,4.359249115E0
1.548460081E1,4.295973480E-2,-9.616742134E-1,3.369208336E0
1.549501081E1,-5.277661681E-1,-6.208724976E-1,2.307143211E0
1.550511381E1,-8.552740216E-1,-2.984542847E-1,1.420776367E0
1.551612181E1,-8.249350786E-1,-4.536628723E-2,6.302452087E-1
1.552477381E1,-5.588566065E-1,1.636388302E-1,-2.346324921E-2
1.553460581E1,-1.570456922E-1,3.132605553E-1,-5.319986343E-1
1.554471881E1,2.659281492E-1,4.073336124E-1,-1.059941292E0
1.555479381E1,5.723624229E-1,4.006931782E-1,-1.546242714E0
1.556461681E1,7.040609121E-1,3.742778301E-1,-2.047492981E0
1.557468581E1,6.675056219E-1,2.924573421E-1,-2.545930862E0
1.558496881E1,4.990539551E-1,1.939086914E-1,-2.924832344E0
1.559456381E1,3.404837847E-1,7.103872299E-2,-3.091168880E0
1.560482081E1,7.225126028E-3,-1.583969593E-1,-3.064220905E0
1.561464781E1,-9.889876842E-2,-2.117056847E-1,-2.832095146E0
1.562461981E1,-1.222436726E-1,-3.046293259E-1,-2.465039253E0
1.563452981E1,-9.025368094E-2,-4.092724323E-1,-2.117221355E0
1.564459181E1,-8.051674068E-2,-4.961521626E-1,-1.839386463E0
1.565502881E1,-5.448679626E-2,-5.880184174E-1,-1.703624725E0
1.566482081E1,4.197656363E-2,-7.191877365E-1,-1.698993683E0
1.567489981E1,1.615519226E-1,-8.482007980E-1,-1.750454903E0
1.568509281E1,2.255108804E-1,-9.368693829E-1,-1.911985397E0
1.569458481E1,3.021222651E-1,-1.022759199E0,-2.091202736E0
1.570478381E1,4.096694887E-1,-1.188216686E0,-2.171774387E0
1.571453281E1,4.897484183E-1,-1.375601053E0,-2.256197929E0
1.572515781E1,3.999199569E-1,-1.479215741E0,-2.276191711E0
1.573642181E1,2.325954288E-1,-1.582010150E0,-2.339592934E0
1.574488181E1,8.283844590E-2,-1.658222556E0,-2.263756752E0
1.575452181E1,-1.372906119E-1,-1.735568285E0,-2.180627823E0
1.576487081E1,-3.615956008E-1,-1.805031538E0,-2.048066139E0
1.577458781E1,-6.203355789E-1,-1.838087320E0,-1.801312447E0
1.578465081E1,-7.905106544E-1,-1.908358932E0,-1.604110241E0
1.579525581E1,-9.210398197E-1,-1.988003850E0,-1.585896015E0
1.580518981E1,-1.045102954E0,-2.040938854E0,-1.614832878E0
1.581479581E1,-1.143581152E0,-2.171276093E0,-1.527161121E0
1.582530681E1,-1.251261592E0,-2.369404793E0,-1.198101997E0
1.583455481E1,-1.681161165E0,-2.009117603E0,-7.966728210E-1
1.584458381E1,-1.948934078E0,-1.897539496E0,-4.878311157E-1
1.585459381E1,-1.870832920E0,-2.146881104E0,-2.211065292E-1
1.586479481E1,-1.082758665E0,-3.476205349E0,-1.750373840E-2
1.587473281E1,-9.296215773E-1,-2.735132217E0,4.924354553E-1
1.588506681E1,-1.604243755E0,-1.319449425E0,1.167562485E0
1.589641581E1,-1.748555422E0,-7.652127743E-1,1.637537956E0
1.590468881E1,-1.628273249E0,-5.850319862E-1,2.443994522E0
1.591453481E1,-1.429221272E0,-5.311644077E-1,3.044872284E0
1.592475381E1,-1.313681841E0,-5.618586540E-1,3.085263252E0
1.593451381E1,-1.188994288E0,-6.349539757E-1,2.468518257E0
1.594560981E1,-1.070742130E0,-5.702965260E-1,1.864668846E0
1.595474381E1,-1.054062963E0,-1.803200245E-1,1.553300858E0
1.596501081E1,-9.470019341E-1,4.661886692E-1,1.650410652E0
1.597495081E1,-7.568277121E-1,1.255044460E0,2.410697937E0
1.598455481E1,-7.461657524E-1,2.115061998E0,3.364540100E0
1.599493281E1,-6.238758564E-1,2.367403507E0,3.960960388E0
1.600530781E1,1.097176820E-1,2.149604321E0,4.464506149E0
1.601700981E1,1.170317411E0,1.914507866E0,5.382855415E0
1.602999881E1,1.720707893E0,1.607978344E0,6.444196701E0
1.604460581E1,1.624165058E0,1.620401144E0,6.050134659E0
1.605502081E1,1.425557375E0,1.709685802E0,5.084692001E0
1.606523981E1,1.180259943E0,1.677391052E0,4.153878212E0
1.607463481E1,8.649330139E-1,1.766494036E0,3.452328682E0
1.608518881E1,3.993523717E-1,1.932915688E0,3.189785957E0
1.609497881E1,-2.319306135E-2,1.990119219E0,3.002753258E0
1.610463581E1,-3.109220266E-1,1.922262669E0,2.363502502E0
1.611461181E1,-4.873111248E-1,1.630770683E0,1.336283684E0
1.612459281E1,-7.789731622E-1,1.182765484E0,6.849002838E-1
1.613769081E1,-3.728268147E-1,7.683451176E-1,-8.407974243E-2
1.615461381E1,2.021733522E-1,8.933174610E-1,-1.137824059E0
1.616482881E1,1.310528517E-1,8.845295906E-1,-1.550780773E0
1.617494181E1,-6.452894211E-2,9.627127647E-1,-2.546072960E0
1.618486581E1,2.503774762E-1,3.791925907E-1,-3.243750095E0
1.619460181E1,6.721621752E-2,5.614550114E-1,-3.212449074E0
1.620509181E1,-3.115824759E-1,7.052619457E-1,-3.090438366E0
1.621450681E1,-5.196056366E-1,4.989953041E-1,-2.776218414E0
1.622496381E1,-5.085170269E-1,9.632277489E-2,-2.302218914E0
1.623454681E1,-5.827829838E-1,-1.510429382E-1,-2.292859554E0
1.624469581E1,-7.639287710E-1,-2.027997971E-1,-2.599388123E0
1.625593481E1,-7.839026451E-1,-3.070702553E-1,-2.823683262E0
1.626452081E1,-7.916844487E-1,-6.243851185E-1,-2.916620731E0
1.627459681E1,-8.281052113E-1,-7.619405985E-1,-2.777518749E0
1.628449281E1,-5.283600092E-1,-6.656618118E-1,-2.660198212E0
1.629475481E1,-6.943436265E-1,-6.015529633E-1,-2.168822765E0
1.630462881E1,-5.457745194E-1,-5.691478252E-1,-1.750910759E0
1.631458381E1,-3.403344750E-1,-4.547429085E-1,-1.581771374E0
1.632479281E1,-9.237872064E-2,-3.884556293E-1,-1.540978432E0
1.633449281E1,9.886953235E-2,-4.406771660E-1,-1.512374878E0
1.634454781E1,1.854145825E-1,-4.806821346E-1,-1.526216030E0
1.635514581E1,1.678869575E-1,-4.763729572E-1,-1.521139145E0
1.636518181E1,1.342656910E-1,-4.396581650E-1,-1.525522709E0
1.637454081E1,1.268966496E-1,-4.158825874E-1,-1.528997898E0
1.638451181E1,1.537669599E-1,-3.625199795E-1,-1.520219803E0
1.639455981E1,6.631487608E-2,-6.346213818E-1,-1.601629734E0
1.640458981E1,3.330858648E-1,-7.002093792E-1,-1.086688995E0
1.641577281E1,3.941264749E-1,-1.455845833E-1,-1.097809792E0
1.642466781E1,4.389286041E-1,-2.528452873E-2,-1.441926956E0
1.643463981E1,6.539311409E-1,-7.611465454E-2,-1.434001923E0
1.644467281E1,8.149624467E-1,-8.908343315E-2,-1.358070374E0
1.645466781E1,1.000530839E0,-1.537501812E-1,-1.322439194E0
1.646472881E1,9.844259024E-1,-2.966978550E-1,-1.191865444E0
1.647582481E1,8.633673191E-1,-5.225794315E-1,-8.186731339E-1
1.648465181E1,7.542328238E-1,-5.259010792E-1,-4.218540192E-1
1.649591481E1,5.259443521E-1,-3.020598888E-1,-3.422641754E-2
1.650785381E1,3.527224660E-1,1.016280651E-1,1.251120567E0
1.652467181E1,1.185469627E-1,1.490379572E0,2.066752434E0
1.653463581E1,2.045893669E-2,1.780090570E0,2.795106888E0
1.654533681E1,2.670186758E-1,1.472738266E0,3.279058456E0
1.655497281E1,9.784829021E-1,4.145288467E-1,3.579355240E0
1.656500681E1,1.533779263E0,-6.385462284E-1,3.503125191E0
1.657487581E1,1.346309423E0,-1.079295158E0,2.987605095E0
1.658476381E1,7.998885512E-1,-1.224900723E0,2.601568222E0
1.659477281E1,2.517776489E-1,-1.124752998E0,2.327947617E0
1.660489081E1,-3.389543295E-1,-7.923440933E-1,2.149007797E0
1.661512381E1,-9.061859846E-1,-3.345372677E-1,2.246096611E0
1.662510881E1,-1.367228746E0,8.167934418E-2,2.399841309E0
1.663456481E1,-1.490411282E0,1.147179604E-1,2.767779350E0
1.664472381E1,-1.124937415E0,-2.160232067E-1,3.164047241E0
1.665457981E1,-6.061112881E-1,-4.289784431E-1,3.400481224E0
1.666498581E1,2.582978010E-1,-6.748657227E-1,4.365910530E0
1.667467981E1,1.434986591E-1,-5.786113739E-1,4.627735138E0
1.668468381E1,4.077658057E-1,-1.061076641E0,4.643779755E0
1.669502281E1,1.900793314E-1,-1.249842763E0,4.613995552E0
1.670546281E1,-1.433095932E-1,-1.060791731E0,3.854841232E0
1.671506581E1,-4.745510817E-1,-7.423920631E-1,2.905548096E0
1.672506781E1,-6.889797449E-1,-4.285626411E-1,1.859331131E0
1.673450481E1,-7.704559565E-1,-1.661262512E-1,8.816385269E-1
1.674478881E1,-7.261738777E-1,-7.019042969E-3,-4.470252991E-2
1.675466981E1,-6.302475929E-1,7.304191589E-2,-7.603225708E-1
1.676501381E1,-4.803934097E-1,6.602978706E-2,-1.288080215E0
1.677651281E1,-2.688117027E-1,2.301907539E-2,-1.665331364E0
1.678486581E1,-9.529602528E-2,-3.314018250E-3,-1.900185585E0
1.679461281E1,9.205365181E-2,-1.434125900E-1,-2.130394936E0
1.680465881E1,3.031393290E-1,-4.247155190E-1,-2.393393993E0
1.681461181E1,4.133051634E-1,-7.094364166E-1,-2.572239876E0
1.682490481E1,3.636926413E-1,-9.222464561E-1,-2.812202930E0
1.683449781E1,1.802087426E-1,-1.085293055E0,-3.119950294E0
1.684573081E1,-1.026421785E-1,-1.154752254E0,-4.071027756E0
1.685459081E1,-1.706681252E-1,-1.219649076E0,-4.158000946E0
1.686473781E1,-2.273346186E-1,-1.298140287E0,-3.599460602E0
1.687641081E1,-5.598201752E-1,-1.058250666E0,-3.205022812E0
1.688459881E1,-9.611837864E-1,-1.898684263E0,-2.660645485E0
1.689502481E1,-1.916450024E0,-1.164870262E0,-2.506213665E0
1.690471181E1,-1.939046860E0,-1.152630568E0,-1.090788841E0
1.691455781E1,-6.213222742E-1,-1.558198690E0,-9.487466812E-1
1.692625481E1,2.468943596E-2,-1.837213755E0,-6.889553070E-1
1.693450381E1,9.229187369E-1,-2.120551109E0,-1.608972549E-1
1.694543881E1,1.335309148E0,-2.080315113E0,-2.842073441E-1
1.695456081E1,1.348456860E0,-1.771763563E0,-5.379943848E-1
1.696451981E1,1.205174685E0,-1.507233620E0,-1.082846165E0
1.697529981E1,1.217377424E0,-1.230253935E0,-1.868181705E0
1.698465181E1,8.789119720E-1,-1.561984301E0,-2.699565887E0
1.699465781E1,2.400367260E-1,-2.126780033E0,-2.229448795E0
1.700460581E1,-3.612468243E-1,-2.264495850E0,-1.606267452E0
1.701458781E1,-6.905320883E-1,-2.248123169E0,-1.248932362E0
1.702658981E1,-7.698806524E-1,-2.192072868E0,-9.738445282E-1
1.703459381E1,-7.282168865E-1,-2.090710163E0,-8.135681152E-1
1.704458481E1,-6.803776026E-1,-1.886839628E0,-8.573532104E-1
1.705456681E1,-5.837033987E-1,-1.707773685E0,-1.015441418E0
1.706468481E1,-4.804892540E-1,-1.512362003E0,-1.032535553E0
1.707747681E1,-7.216947079E-1,-9.128572941E-1,-1.556396484E-3
1.709491281E1,-8.141928911E-1,-5.971195698E-1,1.342136383E0
1.710746481E1,-8.363549709E-1,3.379592896E-1,3.056118965E0
1.712492581E1,-9.903607368E-1,1.347839832E-1,3.287085533E0
1.713680481E1,-4.739817381E-1,4.885487556E-1,3.220519066E0
1.715470581E1,-1.874415874E-1,2.749804497E0,2.852439880E0
1.716466881E1,1.032948732E0,1.898969650E0,2.710306168E0
1.717451881E1,2.606108189E0,7.885284424E-1,2.709735870E0
1.718455981E1,1.792978525E0,5.065445900E-1,2.705922127E0
1.719517981E1,-1.786830425E-1,3.375306129E-1,4.064492226E0
1.720471181E1,-2.375359535E-1,3.855576515E-1,4.036308289E0
1.721501681E1,7.321286201E-2,8.067870140E-2,4.977145195E0
1.722461181E1,2.752392590E-1,1.781938076E-1,5.127698898E0
1.723452581E1,3.247992098E-1,3.262755871E-1,5.348432541E0
1.724640181E1,1.670641303E-1,4.063849449E-1,5.164488792E0
1.725500481E1,1.597925127E-1,1.484642029E-1,4.404908180E0
1.726456581E1,2.656755745E-1,-1.070592403E-1,3.398950577E0
1.727562481E1,3.473356366E-1,-1.472012997E-1,2.721348763E0
1.728503081E1,4.476134181E-1,-9.683847427E-3,2.241101265E0
1.729481381E1,8.700579405E-2,-2.904717922E-1,1.472890854E0
1.730454681E1,-7.874066234E-1,-9.554798603E-1,9.166660309E-1
1.731458081E1,1.007682085E-1,-7.049241066E-1,8.136682510E-1
1.732514281E1,7.250504494E-1,3.255319595E-2,2.740936279E-1
1.733480881E1,4.226981699E-1,-1.053900719E-1,-5.067625046E-1
1.734462181E1,-1.183040142E-1,-7.160425186E-2,-1.254271507E0
1.735458581E1,-3.739315271E-1,1.164367199E-1,-1.894327641E0
1.736475281E1,-5.085165501E-1,3.399326801E-1,-2.352872849E0
1.737478881E1,-4.792720377E-1,4.805083275E-1,-2.479891300E0
1.738451981E1,-3.323162198E-1,4.214723110E-1,-2.493520260E0
1.739450781E1,1.118423939E-1,5.633029938E-1,-2.218394279E0
1.740532881E1,2.694951296E-1,-8.330297470E-2,-1.772138119E0
1.741485481E1,-2.249094248E-1,-3.197107315E-1,-1.627006054E0
1.742519481E1,-3.294740915E-1,-3.124439716E-1,-1.623119831E0
1.743450781E1,9.924173355E-3,-2.622568607E-1,-1.609693527E0
1.744632181E1,2.676280141E-1,-2.344636917E-1,-1.568953991E0
1.745466381E1,5.061911345E-1,-3.237450123E-1,-1.643843651E0
1.746461281E1,6.042840481E-1,-4.173889160E-1,-1.828604698E0
1.747507981E1,5.951262712E-1,-4.685502052E-1,-2.056071758E0
1.748473081E1,5.435625911E-1,-4.950926304E-1,-2.117119789E0
1.749753381E1,5.456164479E-1,-5.490570068E-1,-1.978684425E0
1.751460881E1,5.193568468E-1,-5.204691887E-1,-1.768394947E0
1.752457981E1,4.384266138E-1,-4.747517109E-1,-1.613135338E0
1.753452681E1,3.571906686E-1,-4.773385525E-1,-1.481805801E0
1.754455181E1,4.085791707E-1,-5.115623474E-1,-1.338027954E0
1.755455481E1,6.161224842E-1,-6.195209026E-1,-1.292664051E0
1.756469781E1,8.703208566E-1,-7.057602406E-1,-1.285977364E0
1.757461481E1,1.080374837E0,-7.366435528E-1,-1.219080448E0
1.758537781E1,1.108942032E0,-7.075097561E-1,-1.242440701E0
1.759456781E1,1.001910806E0,-6.743752956E-1,-1.456657410E0
1.760585281E1,9.743546247E-1,-6.545336246E-1,-1.691126347E0
1.761476381E1,9.700833559E-1,-7.032468319E-1,-1.770390034E0
1.762493181E1,9.334634542E-1,-7.748012543E-1,-1.744062424E0
1.763615081E1,9.449061155E-1,-8.752973080E-1,-1.764902115E0
1.764471881E1,9.421629906E-1,-9.326636791E-1,-1.769233704E0
1.765465681E1,9.462252259E-1,-9.420902729E-1,-1.721850395E0
1.766480881E1,8.588158488E-1,-8.268284798E-1,-1.477209091E0
1.767463981E1,5.783079863E-1,-5.989851952E-1,-1.167694092E0
1.768457481E1,2.721399069E-1,-2.393598557E-1,-9.051675797E-1
1.769480381E1,5.264210701E-2,2.176709175E-1,-6.715979576E-1
1.770469181E1,1.158591509E-1,6.428723335E-1,-5.169363022E-1
1.771480781E1,-4.971909523E-2,7.918772697E-1,-4.868292809E-1
1.772455281E1,-3.929468393E-1,8.269333839E-1,3.128585815E-1
1.773453681E1,-1.759874821E-1,9.452466965E-1,1.041905403E0
1.774504081E1,7.903928757E-1,8.863725662E-1,2.616998672E0
1.775466181E1,1.249125719E0,6.084451675E-1,3.507564545E0
1.776456581E1,1.247625113E0,3.445672989E-2,4.233722687E0
1.777482681E1,8.499686718E-1,-4.227972031E-1,4.566585541E0
1.778459381E1,5.358297825E-1,-8.129711151E-1,4.099161148E0
1.779579081E1,4.975413680E-1,-1.155673504E0,2.914252281E0
1.780545081E1,1.769448519E-1,-1.377754211E0,1.803642273E0
1.781516981E1,-4.074194431E-1,-1.028146744E0,1.226380348E0
1.782492281E1,-1.062249780E0,-8.020806313E-1,6.757049561E-1
1.783456781E1,-1.561721206E0,-7.375793457E-1,7.587852478E-1
1.784510081E1,-1.840937614E0,-8.415665627E-1,1.709694862E0
1.785455281E1,-1.855172992E0,-1.018026590E0,2.833409309E0
1.786516481E1,-1.545263767E0,-1.130189180E0,3.961522102E0
1.787460781E1,-1.313893318E0,-8.554451466E-1,5.058600426E0
1.788453181E1,-8.920941353E-1,-6.675107479E-1,5.737248421E0
1.789465281E1,-3.710939884E-1,-6.726336479E-1,5.780307770E0
1.790461281E1,-5.659711361E-2,-6.535408497E-1,5.469554901E0
1.791471881E1,5.945813656E-2,-4.692020416E-1,4.785560608E0
1.792489081E1,-1.461744308E-3,-2.354533672E-1,3.780636787E0
1.793460381E1,-6.249737740E-2,-9.036827087E-2,2.773112297E0
1.794505581E1,-2.151681185E-1,-2.887535095E-2,1.617485046E0
1.795528281E1,-9.552594423E-1,-3.730468750E-1,6.092758179E-1
1.796467081E1,-1.084939122E0,-4.335734844E-1,1.052436829E-1
1.797465881E1,-8.207046986E-1,-3.516368866E-1,-9.586377144E-1
1.798458581E1,-5.304309130E-1,-2.102704048E-1,-1.416144371E0
1.799518581E1,-2.488796711E-1,-1.141729355E-1,-1.664632797E0
1.800732781E1,8.220982552E-2,-8.422136307E-2,-2.121289253E0
1.802020131E1,7.230883837E-1,1.004734039E-1,-3.026768208E0
1.803488481E1,1.390483618E0,1.441082954E-1,-3.256162167E0
1.804524481E1,1.676259279E0,2.388463020E-1,-3.535545349E0
1.805466781E1,1.428783536E0,1.769509315E-1,-3.648812771E0
1.806453381E1,3.353812099E-1,-2.299151421E-1,-3.090047359E0
1.807511481E1,-6.170690060E-1,-5.839900970E-1,-1.822592735E0
1.808470081E1,-9.151654243E-1,-7.557072639E-1,-1.131002426E0
1.809471981E1,-6.134754419E-1,-8.046100140E-1,-8.972125053E-1
1.810456981E1,-1.576243639E-1,-8.735082150E-1,-6.016311646E-1
1.811478181E1,-5.483627319E-6,-8.190805912E-1,-1.778001785E-1
1.812501481E1,8.294415474E-2,-9.449324608E-1,-3.722143173E-1
1.813463381E1,2.636133432E-1,-1.155057907E0,-7.336502075E-1
1.814567081E1,3.367183805E-1,-1.299900532E0,-1.109098911E0
1.815463881E1,1.775953770E-1,-1.344599485E0,-1.470427036E0
1.816495781E1,-2.652988434E-1,-1.485953331E0,-1.756687641E0
1.817590281E1,-5.697295666E-1,-2.327329636E0,-2.126517773E0
1.818482881E1,4.169613123E-1,-2.039589643E0,-2.115705490E0
1.819469981E1,6.863427162E-2,-7.796852589E-1,-1.755579948E0
1.820499181E1,-5.958828926E-1,-7.569336891E-1,-1.798817635E0
1.821456981E1,-1.140013337E0,-8.846619129E-1,-1.111556530E0
1.822567381E1,-1.325771093E0,-1.045565844E0,-8.880896568E-1
1.823485481E1,-9.994897842E-1,-1.264969349E0,-7.090511322E-1
1.824475581E1,-3.020485640E-1,-1.344926834E0,-5.814342499E-1
1.825460981E1,3.364871144E-1,-1.238462925E0,-4.933862686E-1
1.826486581E1,2.248131037E-1,-1.087524176E0,-1.411560535E0
1.827608281E1,-9.721028805E-1,-9.437105656E-1,-1.125284195E0
1.828465981E1,-9.267828465E-1,-9.396860600E-1,-5.090484619E-1
1.829461581E1,-1.459131479E0,-1.469558716E0,-2.073841095E-1
1.830545881E1,-1.652778029E0,-1.355923653E0,1.047658920E-1
1.831457281E1,-1.518422365E0,-9.715743065E-1,3.556785583E-1
1.832519581E1,-1.005697489E0,-2.272248268E-1,1.210241318E-1
1.833460981E1,-2.694453001E-1,3.217830658E-1,-5.748472214E-1
1.834507881E1,-1.330257654E-1,5.871696472E-1,-1.179209232E0
1.835463081E1,1.677271128E-1,8.786802292E-1,-1.427433491E0
1.836510681E1,5.498142838E-1,9.603095055E-1,-1.030782223E0
1.837464081E1,6.749661565E-1,7.992391586E-1,-3.553628922E-1
1.838459381E1,3.730060458E-1,8.337979317E-1,1.020170212E0
1.839472181E1,-1.748456955E-1,9.133577347E-1,2.534068108E0
1.840765581E1,-4.677209854E-1,6.778702736E-1,3.261276245E0
1.842464381E1,-1.285886765E-1,5.652308464E-1,3.139298439E0
1.843474581E1,2.977606058E-1,5.106015205E-1,3.483489037E0
1.844457781E1,5.234124660E-1,6.257438660E-1,3.475514412E0
1.845502181E1,5.476416349E-1,9.669895172E-1,3.235953331E0
1.846455781E1,5.807281733E-1,1.216125965E0,2.859548569E0
1.847511881E1,6.611960530E-1,1.279889584E0,2.574693680E0
1.848465581E1,8.196182251E-1,1.240540504E0,2.444441795E0
1.849483481E1,9.204545021E-1,1.135828495E0,2.691340446E0
1.850552181E1,8.190971017E-1,9.812836647E-1,3.491182327E0
1.851466881E1,7.483160496E-1,8.471498489E-1,4.312395096E0
1.852493181E1,8.357098699E-1,7.160425186E-1,4.602165222E0
1.853455281E1,1.053483963E0,7.657070160E-1,4.738171577E0
1.854485281E1,1.268041015E0,7.405948639E-1,4.553458214E0
1.855548081E1,1.406053305E0,5.877957344E-1,3.992239952E0
1.856449581E1,1.490245581E0,9.527168274E-1,3.301859856E0
1.857459181E1,1.048007607E0,8.403291702E-1,2.682929993E0
1.858469381E1,5.069080591E-1,8.578681946E-1,1.828155518E0
1.859514681E1,3.686010242E-1,6.191630363E-1,7.943735123E-1
1.860464681E1,3.638575673E-1,4.909710884E-1,3.137340546E-1
1.861486681E1,3.292399049E-1,4.448056221E-1,-6.903438568E-1
1.862674781E1,6.120419502E-2,5.659041405E-1,-1.403501034E0
1.864458781E1,1.588495970E-1,8.146190643E-1,-1.134113789E0
1.865465881E1,6.946261525E-1,3.509278297E-1,-1.109970093E0
1.866496981E1,1.388688684E0,4.724793434E-1,-8.656206131E-1
1.867581781E1,1.446805120E0,8.917236328E-2,-8.390789032E-1
1.868496081E1,1.074074864E0,-2.484755516E-1,-9.757823944E-1
1.869460081E1,4.262150526E-1,-3.600988388E-1,-1.850212574E0
1.870506281E1,-4.461119175E-1,-3.138756752E-1,-2.693148613E0
1.871475881E1,-9.534586668E-1,-2.186069489E-1,-3.687255383E0
1.872487581E1,-7.518384457E-1,-5.660295486E-2,-4.386535645E0
1.873457181E1,8.722186089E-2,-1.067934036E-1,-5.099071503E0
1.874497281E1,1.739714146E-1,-4.649510384E-1,-4.882031441E0
1.875485781E1,2.488579750E-1,-4.592518806E-1,-4.518237591E0
1.876484281E1,6.833790541E-1,-6.950798035E-1,-3.773958683E0
1.877482981E1,7.208648920E-1,-8.998751640E-1,-3.325185299E0
1.878475081E1,1.103210092E0,-1.024293900E0,-3.129614353E0
1.879632781E1,1.292311907E0,-1.482986927E0,-2.373866081E0
1.880465981E1,1.275994539E0,-1.461130619E0,-2.390969276E0
1.881458581E1,1.725394964E0,-1.601640940E0,-2.243254662E0
1.882476081E1,1.330108166E0,-1.224911213E0,-2.720006943E0
1.883461381E1,1.205972672E0,-6.479153633E-1,-2.701231003E0
1.884481181E1,9.815684557E-1,-4.839916229E-1,-2.267893314E0
1.885455281E1,8.889772892E-1,-3.345437050E-1,-1.789742947E0
1.886492281E1,9.747624397E-1,-2.807254791E-1,-1.520206928E0
1.887462381E1,9.728151560E-1,-1.350784302E-1,-1.371584415E0
1.888616881E1,9.268458486E-1,-3.770875931E-2,-1.315287113E0
1.889462281E1,1.019516706E0,-9.006261826E-2,-1.305168152E0
1.890477081E1,1.038542747E0,-1.395840645E-1,-1.186683178E0
1.891487781E1,9.754794836E-1,-6.184720993E-2,-9.602365494E-1
1.892502381E1,7.073650360E-1,3.639602661E-2,-7.732410431E-1
1.893596581E1,2.587497234E-1,4.326510429E-1,-4.569420815E-1
1.894483981E1,-1.293685436E-1,1.158263206E0,-6.687879562E-2
1.895473281E1,-5.569542646E-1,1.825738430E0,4.234600067E-1
1.896448781E1,-6.986349821E-1,2.245104790E0,1.272981644E0
1.897466681E1,-9.094293118E-1,2.744284630E0,2.458280087E0
1.898487781E1,-1.383791327E0,3.101550102E0,3.397062302E0
1.899455281E1,-1.483060002E0,2.903655052E0,4.073889256E0
1.900767981E1,-1.266068697E0,2.362030029E0,4.886200905E0
1.902468281E1,-1.636829376E-1,1.053302288E0,7.135574341E0
1.903625181E1,3.058561087E-1,4.357295036E-1,7.918259621E0
1.904462681E1,3.076066971E-1,-1.092767715E-2,8.022800446E0
1.905483581E1,-7.603347301E-2,-4.171409607E-1,7.432692528E0
1.906475081E1,-5.961637497E-1,-6.043281555E-1,6.687361717E0
1.907462081E1,-1.391647816E0,-9.501461983E-1,5.716667175E0
1.908452481E1,-1.980592608E0,-8.763012886E-1,4.881793022E0
1.909456681E1,-2.099302530E0,-1.298160076E0,4.232786179E0
1.910488681E1,-2.205449820E0,-1.509004116E0,3.805000305E0
1.911467681E1,-1.834669828E0,-1.805566549E0,3.723737717E0
1.912457181E1,-1.619261026E0,-1.678714037E0,3.462074280E0
1.913484981E1,-1.410730481E0,-1.437717676E0,3.239865303E0
1.914464381E1,-9.611616135E-1,-1.324465990E0,3.125576973E0
1.915460881E1,-4.788184166E-1,-1.202558041E0,2.872712135E0
1.916512781E1,7.743477821E-3,-1.075915575E0,2.678199768E0
1.917464381E1,3.627327681E-1,-9.355909824E-1,2.169733047E0
1.918461781E1,6.744241714E-1,-8.373637199E-1,1.506468773E0
1.919501081E1,1.036712050E0,-8.590073586E-1,6.121025085E-1
1.920459581E1,1.338295937E0,-8.731331825E-1,-2.834138870E-1
1.921663081E1,1.650275469E0,-9.191391468E-1,-9.655814171E-1
1.922463281E1,1.810647488E0,-9.768464565E-1,-1.472448349E0
1.923460381E1,1.844599724E0,-9.533157349E-1,-1.889898300E0
1.924482781E1,1.752225637E0,-8.987984657E-1,-2.290264130E0
1.925498381E1,1.729470730E0,-6.800708771E-1,-2.502410412E0
1.926454681E1,1.758927345E0,-7.149143219E-1,-2.705032825E0
1.927459981E1,1.720897794E0,-6.943378448E-1,-2.902999878E0
1.928756881E1,1.650288939E0,-7.179865837E-1,-3.224547386E0
1.930453881E1,1.470036745E0,-7.435953617E-1,-3.493709564E0
1.931451781E1,1.338472128E0,-8.420886993E-1,-3.372086048E0
1.932488981E1,1.191958666E0,-9.065363407E-1,-2.977594376E0
1.933452781E1,1.058789492E0,-9.411792755E-1,-2.707249165E0
1.934462981E1,9.077829719E-1,-9.771454334E-1,-2.594774246E0
1.935461981E1,7.466241121E-1,-9.641768932E-1,-2.465303898E0
1.936447981E1,5.588216782E-1,-9.527175426E-1,-2.258775711E0
1.937529481E1,-8.264613152E-2,-6.508765221E-1,-1.302843094E0
1.938459581E1,-2.234537601E-1,-4.845194817E-1,-1.004311562E0
1.939582681E1,-2.649930716E-1,-3.858942986E-1,-1.148052692E0
1.940480581E1,-2.463464737E-1,-3.017106056E-1,-1.246535778E0
1.941462881E1,-2.465201616E-1,-2.835597992E-1,-1.085703850E0
1.942475881E1,-2.525515556E-1,-2.128028870E-1,-1.220072269E0
1.943457681E1,-3.836714029E-1,-6.969690323E-2,-1.295323849E0
1.944587181E1,-7.212135792E-1,1.604290009E-1,-1.014959812E0
1.945461981E1,-1.179785609E0,5.243749619E-1,-4.035806656E-1
1.946506181E1,-1.364993811E0,7.736320496E-1,2.463617325E-1
1.947456081E1,-1.190524936E0,7.830319405E-1,8.413600922E-1
1.948474781E1,-7.765737772E-1,6.000618935E-1,1.158716202E0
1.949479881E1,-3.918539286E-1,3.841753006E-1,1.505691528E0
1.950877981E1,-2.574937344E-1,4.117393494E-2,1.847882271E0
1.952471681E1,-6.518412828E-1,3.596224785E-1,3.039191246E0
1.953471681E1,-1.045850754E0,1.102930546E0,3.543371201E0
1.954465081E1,-1.561364055E0,2.027255058E0,3.820383549E0
1.955497881E1,-1.888841987E0,2.308497429E0,3.660835743E0
1.956489781E1,-1.547107220E0,2.454031944E0,3.759483814E0
1.957487181E1,-1.223021269E0,2.615341187E0,3.702805042E0
1.958547981E1,-8.896512985E-1,2.084707260E0,3.488900661E0
1.959470581E1,-2.148631811E-1,1.306361198E0,3.817829609E0
1.960467181E1,8.478832245E-2,6.846580505E-1,4.282440186E0
1.961502881E1,6.276071072E-2,5.174355507E-1,4.755103588E0
1.962524481E1,2.661774158E-1,3.064680099E-1,4.262941837E0
1.963701481E1,4.118350744E-1,-1.420645714E-1,3.638734818E0
1.965464181E1,5.050919056E-1,-6.995472908E-1,1.525533199E0
1.967018581E1,4.809224606E-1,-1.006445885E0,-1.653671265E-1
1.968526081E1,4.929622412E-1,-9.879450798E-1,-4.818401337E-1
1.969648681E1,4.561978579E-1,-1.024851799E0,-3.315410614E-1
1.970485081E1,6.523426771E-1,-1.198133945E0,1.467418671E-2
1.971485181E1,1.267282248E0,-1.333679676E0,3.073034286E-1
1.972482681E1,1.962367058E0,-1.536742687E0,2.363171577E-1
1.973485181E1,2.626656294E0,-1.726687193E0,2.539544106E-1
1.974640881E1,3.053823709E0,-1.868743896E0,4.172677994E-1
1.975567481E1,3.056463718E0,-1.771416426E0,3.713574409E-1
1.976509981E1,2.794123173E0,-1.628409386E0,3.171525002E-1
1.977456181E1,2.404961586E0,-1.552060127E0,4.614939690E-1
1.978490281E1,2.015472889E0,-1.504966259E0,5.341348648E-1
1.979595481E1,1.581492901E0,-1.560434818E0,6.550688744E-1
1.980481581E1,1.452219009E0,-1.845835924E0,7.074618340E-1
1.981476381E1,1.790449142E0,-1.970164299E0,8.583688736E-1
1.982494881E1,1.725979805E0,-1.426380157E0,8.213973045E-1
1.983509881E1,9.823551178E-1,-1.183535576E0,1.963372231E-1
1.984621881E1,5.048971176E-1,-1.387324810E0,-1.443180561E0
1.985475481E1,5.235029459E-1,-1.360013008E0,-1.459465981E0
1.986562481E1,4.696800113E-1,-1.564408779E0,-2.236935139E0
1.987465581E1,4.827186465E-1,-1.524632454E0,-2.262567520E0
1.988492181E1,2.925935984E-1,-1.433892727E0,-2.439266682E0
1.989651581E1,1.653491259E-1,-1.720289469E0,-2.488937855E0
1.990453981E1,2.621127367E-1,-1.546947479E0,-2.184443951E0
1.991469181E1,1.000515223E-1,-1.122092247E0,-1.702001095E0
1.992468881E1,-4.508193731E-1,-7.607364655E-1,-1.487976074E0
1.993462881E1,-6.107312441E-1,-8.858475685E-1,-1.044568539E0
1.994472081E1,3.727091551E-1,-7.320628166E-1,-1.277016640E0
1.995487881E1,5.838475227E-1,-7.541708946E-1,-1.704729080E0
1.996464881E1,1.547672749E-1,-4.114608765E-1,-1.425893784E0
1.997460481E1,-8.742022514E-2,-5.218315125E-2,-1.050955296E0
1.998486281E1,1.685833931E-2,8.550119400E-2,-1.078435421E0
1.999456381E1,1.139340401E-1,2.485370636E-2,-9.303021431E-1
2.000532581E1,1.233123541E-1,-1.213350296E-1,-5.832386017E-1
2.001458881E1,2.484347820E-1,-2.441387177E-1,-3.496518135E-1
2.002484881E1,5.206007957E-1,-3.443417549E-1,-1.836724281E-1
2.003453981E1,4.553407431E-1,-2.341246605E-1,1.346397400E-2
2.004532681E1,6.197798252E-2,1.223812103E-1,4.687595367E-1
2.005484781E1,-1.839299202E-1,5.281701088E-1,7.739143372E-1
2.006494481E1,-4.255104065E-1,6.572351456E-1,5.307483673E-1
2.007457081E1,-6.928293705E-1,7.418608665E-1,7.028341293E-1
2.008464281E1,-5.532481670E-1,8.343577385E-1,7.673511505E-1
2.009664381E1,-5.619628429E-1,8.468656540E-1,8.504438400E-1
2.010504281E1,-6.337959766E-1,9.381170273E-1,1.067132950E0
2.011485581E1,-3.226094246E-1,9.348044395E-1,8.359050751E-1
2.012484381E1,-8.071851730E-2,1.035244465E0,4.204297066E-1
2.013461181E1,-2.592325211E-3,1.264142513E0,2.001590729E-1
2.014452281E1,9.129643440E-2,1.326211929E0,3.344407082E-1
2.015455581E1,1.657943726E-1,1.234481335E0,6.561932564E-1
2.016535581E1,1.625266075E-1,1.176082611E0,9.583206177E-1
2.017480481E1,2.583343983E-1,1.149226189E0,1.273068428E0
2.018482281E1,3.936514854E-1,1.130336285E0,1.447579384E0
2.019474981E1,4.711387157E-1,1.245543003E0,1.616317749E0
2.020459081E1,4.857125282E-1,1.349757671E0,1.618364811E0
2.021665081E1,5.761983395E-1,1.348296642E0,1.389079094E0
2.023458181E1,3.984425068E-1,1.611941338E0,7.204918861E-1
2.024454681E1,7.664203644E-3,1.780607224E0,7.045087814E-1
2.025465281E1,-4.255499840E-1,1.826869488E0,1.131982803E0
2.026495381E1,-9.941742420E-1,1.793753624E0,1.873401642E0
2.027466981E1,-1.241973400E0,1.527369976E0,2.807093143E0
2.028457481E1,-9.867179394E-1,1.040698528E0,3.449682713E0
2.029501581E1,-3.939208984E-1,4.689993858E-1,3.479548454E0
2.030508481E1,1.918430328E-1,-1.747436523E-1,3.482519627E0
2.031480181E1,3.777239323E-1,-6.999039650E-1,3.363901138E0
2.032468181E1,2.113585472E-1,-9.011816978E-1,3.212728500E0
2.033458781E1,1.265287399E-3,-1.096063614E0,2.843929291E0
2.034496481E1,-1.790804863E-1,-1.334915638E0,2.265425682E0
2.035486481E1,-2.684032917E-1,-1.314409733E0,1.587406158E0
2.036494381E1,-2.224092484E-1,-1.240641117E0,9.599471092E-1
2.037563481E1,-5.961751938E-2,-1.234792233E0,5.744132996E-1
2.038488081E1,9.135913849E-2,-1.324995995E0,3.916392326E-1
2.039461281E1,2.294068336E-1,-1.522855282E0,4.031138420E-1
2.040615981E1,6.284213066E-1,-1.881581783E0,-4.777350426E-1
2.041461781E1,6.123609543E-1,-1.935478687E0,-4.405074120E-1
2.042626381E1,4.362168312E-1,-2.009989738E0,-7.070708275E-1
2.043465481E1,4.304990768E-1,-2.077208996E0,-6.423964500E-1
2.044493581E1,1.276748180E-1,-1.840549946E0,-6.280717850E-1
2.045513481E1,-1.230597496E-2,-1.777712345E0,-6.856594086E-1
2.046453881E1,-1.850533485E-2,-2.022143364E0,-4.194364548E-1
2.047477781E1,1.171848774E-1,-1.832017422E0,-8.840847015E-2
2.048451681E1,-2.775976658E-1,-1.677940845E0,3.686389923E-1
2.049484781E1,-3.428471088E-1,-1.720510483E0,7.750210762E-1
2.050865381E1,-3.903088570E-1,-1.828200817E0,1.369174480E0
2.052517781E1,-3.538956642E-1,-1.928459644E0,2.204259872E0
2.053464581E1,-5.159900188E-1,-1.840906620E0,2.390392303E0
2.054513981E1,-6.506574154E-1,-1.784095287E0,2.159176826E0
2.055471881E1,-7.345578671E-1,-1.699690819E0,1.724132061E0
2.056471081E1,-7.013092041E-1,-1.642154694E0,1.154191494E0
2.057528581E1,-4.960887432E-1,-1.584930897E0,6.560611725E-1
2.058488881E1,-3.188173771E-1,-1.405664444E0,2.544322014E-1
2.059496281E1,-8.112812042E-2,-1.264510155E0,-9.079504013E-2
2.060511681E1,1.154925823E-1,-1.185886383E0,-3.338646889E-1
2.061457781E1,2.548241615E-1,-1.116167545E0,-5.202674866E-1
2.062746281E1,4.742670059E-1,-1.071643829E0,-7.687029839E-1
2.064545481E1,8.718073368E-1,-1.097775936E0,-7.999486923E-1
2.065488681E1,1.027735949E0,-1.067806244E0,-9.564824104E-1
2.066475481E1,9.904203415E-1,-9.588909149E-1,-1.086771011E0
2.067543481E1,8.923509121E-1,-8.715915680E-1,-1.391467094E0
2.068491881E1,8.078761101E-1,-7.777910233E-1,-2.016021729E0
2.069464381E1,4.424135685E-1,-4.597415924E-1,-2.651270866E0
2.070509881E1,5.561947823E-2,-7.409238815E-1,-1.028535843E0
2.071476981E1,4.882385731E-1,-3.911457062E-1,-1.487088203E-1
2.072590581E1,3.790519238E-1,-2.956032753E-1,4.388790131E-1
2.073493581E1,6.341431141E-1,-4.635062218E-1,9.856147766E-1
2.074539181E1,4.684627056E-1,-3.650746346E-1,1.318243027E0
2.075553781E1,2.992413044E-1,-4.220123291E-1,1.211797237E0
2.076473681E1,1.074624062E-1,-4.045052528E-1,7.393422127E-1
2.077465881E1,7.077860832E-2,-4.942908287E-1,5.385060310E-1
2.078506181E1,1.069955826E-1,-4.978313446E-1,2.257041931E-1
2.084343276E1,3.091573715E-2,-1.561760902E-2,-4.952716827E-2
2.085926688E1,6.989002228E-2,9.892225266E-3,-1.420669556E-1
2.087216444E1,2.546157837E-1,-1.119542122E-2,-2.213792801E-1
2.088406072E1,6.355295181E-1,6.647562981E-2,-1.246213913E-1
2.089464436E1,8.145093918E-1,1.427960396E-2,6.300926208E-2
2.090485968E1,9.645631313E-1,-9.051632881E-2,2.299642563E-1
2.091563834E1,1.040843010E0,-3.048563004E-2,2.575721741E-1
2.092534218E1,1.116637707E0,-5.302333832E-2,2.162189484E-1
2.093541909E1,1.107483864E0,-5.914354324E-2,1.082706451E-1
2.094529405E1,8.814973831E-1,-4.001307487E-2,2.734088898E-2
2.095519203E1,6.515712738E-1,-5.269217491E-2,5.360031128E-2
2.096517352E1,4.865539074E-1,-1.243879795E-1,1.546525955E-1
