"Time (s)","Linear Acceleration x (m/s^2)","Linear Acceleration y (m/s^2)","Linear Acceleration z (m/s^2)"
5.550791900E-2,-4.644393921E-3,1.674556732E-2,1.906824112E-2
7.108191900E-2,1.075243950E-2,6.296348572E-2,2.130985260E-1
8.391191900E-2,1.288046837E-1,-2.742767334E-3,1.932544708E-1
9.527191900E-2,1.584110260E-1,-4.966783524E-2,1.840524673E-1
1.060199190E-1,1.239842176E-1,-4.052782059E-2,2.604808807E-1
1.163849190E-1,1.383687258E-1,-4.746246338E-2,2.836556435E-1
1.266099190E-1,1.577023268E-1,-4.912614822E-2,1.620688438E-1
1.366274190E-1,1.773709059E-1,-5.240774155E-2,5.455636978E-2
1.466551690E-1,-1.173925400E-1,7.339477539E-3,2.124109268E-1
1.571780440E-1,-7.215596437E-1,2.959308624E-1,5.541300774E-1
1.683169810E-1,-7.868492603E-1,3.017568588E-1,3.754196167E-1
1.787029500E-1,-5.424309969E-1,2.948732376E-1,2.200107574E-1
1.966359190E-1,-2.421030998E-1,2.295660973E-1,4.296050072E-1
2.066759190E-1,-4.906952381E-2,1.613206863E-1,5.975880623E-1
2.166749190E-1,-2.694416046E-2,1.650280952E-1,5.496163368E-1
2.276879190E-1,-7.475388050E-2,2.801828384E-1,3.641829491E-1
2.367859190E-1,-2.437777519E-1,3.828883171E-1,1.883182526E-1
2.466779190E-1,4.775607586E-2,4.954776764E-1,7.658863068E-2
2.568809190E-1,-2.683271170E-1,3.426175117E-1,-1.646184921E-1
2.669939190E-1,-4.058349133E-1,6.368775368E-1,4.436540604E-2
2.767289190E-1,-2.725434303E-2,3.309936523E-1,-3.274726868E-2
2.866529190E-1,2.925745249E-1,2.327728271E-2,9.375143051E-2
2.970859190E-1,1.779356003E0,-5.840945244E-1,1.269857407E0
3.066579190E-1,1.125266314E0,-6.175694466E-1,1.261891842E0
3.183279190E-1,-5.761687756E-1,-1.253681183E0,2.272253513E0
3.266579190E-1,-1.747238994E0,-6.306209564E-1,3.023478985E0
3.367329190E-1,-8.925426006E-2,-6.581544876E-1,4.512672901E0
3.466249190E-1,1.228364587E0,-1.673614502E0,3.612524509E0
3.570709190E-1,-1.588034630E-2,-1.791752100E0,3.092497349E0
3.667889190E-1,2.198503256E0,-1.226638794E0,1.981374741E0
3.771109190E-1,2.342597246E-1,-2.321401119E0,1.786228180E0
3.866599190E-1,2.414313555E-1,-1.918883085E0,4.771780968E-1
3.967629190E-1,3.854802847E-1,-1.951653957E0,6.900644302E-2
4.068619190E-1,-4.231276512E-1,-2.364809275E0,-1.027760506E-1
4.167089190E-1,5.811043978E-1,-1.812784910E0,-1.423358917E-1
4.266439190E-1,6.064282656E-1,-2.213999987E0,3.696956635E-1
4.366429190E-1,7.659239769E-1,-2.210550785E0,-1.043238640E-1
4.466189190E-1,7.503827810E-1,-1.963178873E0,1.092815399E-2
4.566399190E-1,8.852685094E-1,-2.011777878E0,-4.888916016E-2
4.666289190E-1,1.132786512E0,-1.990482569E0,-4.675507545E-1
4.766459190E-1,1.028708458E0,-1.848708630E0,-9.126296043E-1
4.866449190E-1,1.176411152E0,-1.784569502E0,-1.261962891E0
4.966079190E-1,9.818276167E-1,-1.865219355E0,-1.443317413E0
5.069129190E-1,7.420108318E-1,-2.018254042E0,-1.480575562E0
5.166729190E-1,9.164221883E-1,-2.287492990E0,-1.172327995E0
5.266489190E-1,1.425472140E0,-2.354051590E0,-9.026312828E-1
5.368249190E-1,7.204159498E-1,-1.645962238E0,-1.118505001E0
5.466329190E-1,-1.482311487E-1,-9.090294838E-1,-9.953770638E-1
5.569959190E-1,-4.992363453E-1,-1.125062704E0,-5.056872368E-1
5.666839190E-1,-4.919307232E-1,-1.311040163E0,-2.644014359E-1
5.766759190E-1,-2.298305035E-1,-1.848381281E0,-6.784915924E-2
5.867009190E-1,-6.801964045E-1,-1.648363113E0,3.641576767E-1
5.967859190E-1,2.945876122E-2,-2.460361004E0,1.169431686E0
6.070629190E-1,-1.085011959E-1,-2.829215527E0,9.694166183E-1
6.168649190E-1,1.208124161E-1,-3.454507351E0,2.095612526E0
6.267139190E-1,-3.093866110E-1,-3.851633787E0,1.883913994E0
6.367059190E-1,-8.450886011E-1,-3.676877499E0,1.537705421E0
6.466419190E-1,-7.819192410E-1,-2.892524242E0,2.508159637E0
6.568289190E-1,-3.618867397E-1,-2.179945946E0,1.996935844E0
6.667129190E-1,3.708612919E-1,-2.147106409E0,1.484492302E0
6.769669190E-1,6.526597738E-1,-2.113576412E0,1.627849579E0
6.866899190E-1,5.854669809E-1,-1.838449717E0,1.782280922E0
6.967259190E-1,6.044872999E-1,-1.672218442E0,1.567390442E0
7.066869190E-1,6.464159489E-1,-1.647101879E0,1.300350189E0
7.167389190E-1,6.275135279E-1,-1.610291600E0,1.043796539E0
7.272979190E-1,5.530132055E-1,-1.469645977E0,7.272329330E-1
7.367319190E-1,4.956896305E-1,-1.509031892E0,3.707771301E-1
7.466369190E-1,3.621584177E-1,-1.552000046E0,1.275024414E-1
7.566949190E-1,2.126219273E-1,-1.479660749E0,-1.882429123E-1
7.666879190E-1,8.776068687E-3,-1.511061788E0,-3.287496567E-1
7.766549190E-1,-2.340322733E-1,-1.651840925E0,-2.398338318E-1
7.866849190E-1,-3.389073610E-1,-1.587845325E0,-2.893629074E-1
7.966649190E-1,-3.122886419E-1,-1.527968645E0,-2.016115189E-1
8.066679190E-1,-1.372338533E-1,-1.656660080E0,-2.778682709E-1
8.167889190E-1,-1.503297091E-1,-1.700227022E0,-2.063550949E-1
8.266539190E-1,-3.610057831E-1,-1.658511043E0,1.042385101E-1
8.368719190E-1,-5.682277679E-1,-1.629169822E0,4.055919647E-1
8.469219190E-1,-8.989908695E-1,-1.589698553E0,7.237110138E-1
8.567209190E-1,-1.268941998E0,-1.507469893E0,1.067847252E0
8.669149190E-1,-1.411276221E0,-1.406369805E0,1.477946281E0
8.768729190E-1,-1.299579620E0,-1.295716047E0,1.572016716E0
8.869789190E-1,-1.277509570E0,-1.131482363E0,1.530326843E0
8.966779190E-1,-1.196598887E0,-6.308085918E-1,1.601489067E0
9.069049190E-1,-1.603118181E0,-4.379593134E-1,1.284125328E0
9.166989190E-1,-5.338263512E-1,-4.281032085E-1,1.412404060E0
9.269519190E-1,8.270621300E-3,-7.198681831E-1,1.641571045E0
9.367069190E-1,6.960415840E-2,-7.239404917E-1,1.247088432E0
9.466649190E-1,2.457857132E-2,-6.339855194E-1,5.609941483E-1
9.573279190E-1,-9.768617153E-2,-5.235728025E-1,2.028388977E-1
9.668349190E-1,-5.908201933E-1,8.597683907E-2,2.704877853E-1
9.766529190E-1,-1.572343469E0,1.564510584E0,1.220874786E0
9.866849190E-1,-2.157543659E0,1.516391993E0,5.790996552E-1
9.966689190E-1,-1.879823446E0,1.110301495E0,-3.290348053E-1
1.007737919E0,-1.672536612E0,9.817202091E-1,-7.614564896E-1
1.016679919E0,-1.364372611E0,9.159336090E-1,-1.189367294E0
1.026707919E0,-1.136153460E0,9.216456413E-1,-1.399759293E0
1.036729919E0,-8.226796389E-1,1.141117811E0,-1.354878426E0
1.046732919E0,-5.554989576E-1,1.049803495E0,-1.386978149E0
1.056695919E0,-2.265943289E-1,7.067570686E-1,-1.280799866E0
1.066683919E0,4.216802120E-2,2.157869339E-1,-9.758930206E-1
1.076658919E0,3.936836720E-1,-2.499275208E-1,-5.720443726E-1
1.086850919E0,7.460405827E-1,-6.610642672E-1,-8.744239807E-3
1.096795919E0,1.002121329E0,-1.095363021E0,3.780679703E-1
1.106683919E0,1.169171214E0,-1.568608284E0,5.973043442E-1
1.116703919E0,1.303306937E0,-2.020156384E0,1.064125061E0
1.127095919E0,1.346282840E0,-2.361566067E0,1.645644188E0
1.136681919E0,1.000165582E0,-2.830626249E0,1.761435509E0
1.146637919E0,9.212220907E-1,-2.669782639E0,2.373087883E0
1.156680919E0,8.764705658E-1,-1.923460841E0,3.093866348E0
1.167088919E0,4.443054199E-1,-4.481626749E-1,3.870075226E0
1.176658919E0,1.087741613E0,-7.355912924E-1,4.209875107E0
1.186673919E0,1.935235023E0,-1.293985128E0,3.949590683E0
1.196718919E0,2.530538559E0,-1.620327950E0,3.315234184E0
1.206884919E0,2.664927483E0,-1.307171583E0,2.878324509E0
1.217171919E0,2.366331100E0,-9.013477564E-1,2.950370789E0
1.226714919E0,1.686636448E0,-1.021738887E0,2.945108414E0
1.236828919E0,1.322934628E0,-1.681933165E0,2.743386269E0
1.246877919E0,1.023245335E0,-1.852182388E0,2.424441338E0
1.256703919E0,5.189687014E-1,-1.700227022E0,1.791662216E0
1.271185919E0,1.686395407E-1,-1.779891968E0,8.941726685E-1
1.286870919E0,-1.039147377E-1,-2.217701435E0,-2.358369827E-1
1.296722919E0,1.101028919E-2,-2.258956194E0,-3.088140488E-1
1.307240919E0,2.912561893E-1,-2.523140430E0,-7.238388062E-1
1.317243919E0,7.134292722E-1,-2.777746677E0,-9.930810928E-1
1.326720919E0,1.019971013E0,-2.840618610E0,-1.018719673E0
1.336676919E0,1.239484668E0,-2.782901049E0,-9.144916534E-1
1.347039919E0,1.448039889E0,-2.688198566E0,-7.275924683E-1
1.356676919E0,1.709234715E0,-2.560816526E0,-2.669086456E-1
1.366921919E0,2.035232544E0,-2.422361612E0,1.578159332E-1
1.377188919E0,2.249905825E0,-2.259428978E0,4.679574966E-1
1.386843919E0,2.379181147E0,-2.088950396E0,7.108049393E-1
1.396887919E0,2.437249422E0,-1.910965919E0,9.477844238E-1
1.407383919E0,2.462983370E0,-1.738025904E0,9.828910828E-1
1.416730919E0,2.494219780E0,-1.593628764E0,8.329753876E-1
1.426810919E0,2.563232899E0,-1.479008436E0,5.862445831E-1
1.436671919E0,2.656545639E0,-1.403851151E0,2.397336960E-1
1.446835919E0,2.645092964E0,-1.363803506E0,-1.182794571E-1
1.456858919E0,2.406707764E0,-1.286675930E0,-3.944435120E-1
1.466707919E0,2.047810555E0,-1.165563941E0,-6.852998734E-1
1.476735919E0,1.653007627E0,-1.029272318E0,-1.132288933E0
1.486751919E0,1.257827163E0,-8.806786537E-1,-1.489190578E0
1.497851919E0,8.627179861E-1,-7.274374962E-1,-1.724473000E0
1.506862919E0,5.099174380E-1,-6.038293839E-1,-1.964561462E0
1.516698919E0,2.661399841E-1,-4.702425003E-1,-1.916552544E0
1.526711919E0,1.905877590E-1,-3.595767021E-1,-1.728536606E0
1.536905919E0,2.202332020E-1,-2.981233597E-1,-1.658552647E0
1.546866919E0,3.032677174E-1,-2.998645306E-1,-1.456298351E0
1.556695919E0,3.284140825E-1,-3.112361431E-1,-1.294726372E0
1.566722919E0,3.253597021E-1,-3.476407528E-1,-1.051836967E0
1.576682919E0,2.794657946E-1,-4.240353107E-1,-9.949932098E-1
1.586711919E0,7.250928879E-2,-3.928601742E-1,-9.640445709E-1
1.596658919E0,-1.053583622E-1,-3.406610489E-1,-1.072813034E0
1.606696919E0,-1.419037580E-1,-3.418192863E-1,-1.132721901E0
1.616713919E0,-1.746777296E-1,-2.908785343E-1,-1.115644455E0
1.626710919E0,-2.311886549E-1,-2.047584057E-1,-9.025945663E-1
1.636663919E0,-2.872183323E-1,-7.941603661E-2,-5.191745758E-1
1.646826919E0,-3.061993122E-1,6.585836411E-3,-1.743116379E-1
1.656815919E0,-3.085453510E-1,4.876089096E-2,9.671592712E-2
1.667477919E0,-1.869421005E-1,1.902060509E-1,4.829502106E-1
1.676713919E0,-1.946816444E-1,2.264130116E-1,4.706296921E-1
1.687575919E0,-6.240153313E-2,3.745934963E-1,6.318225861E-1
1.696792919E0,-1.804864407E-2,4.685728550E-1,6.739053726E-1
1.706852919E0,-6.432747841E-2,5.368504524E-1,4.844655991E-1
1.717272919E0,-7.978510857E-2,6.599516869E-1,2.698383331E-1
1.726672919E0,3.228199482E-2,6.938784122E-1,5.791950226E-2
1.736744919E0,1.221004725E-1,7.795329094E-1,-2.130718231E-1
1.746670919E0,2.529811859E-1,8.477480412E-1,-5.013532639E-1
1.756843919E0,3.368165493E-1,9.430692196E-1,-7.330970764E-1
1.770949919E0,4.570367336E-1,1.041801214E0,-7.974519730E-1
1.787067919E0,6.573960185E-1,5.196840763E-1,-1.579713821E-1
1.796676919E0,8.235940337E-1,4.676058292E-1,3.786897659E-1
1.806943919E0,7.649532557E-1,4.237570763E-1,7.542390823E-1
1.821308919E0,6.289572716E-1,3.934526443E-1,1.104880333E0
1.836849919E0,4.231894016E-1,6.974434853E-2,2.021865845E0
1.847184919E0,2.720108032E-1,-5.526971817E-2,2.532348633E0
1.856802919E0,1.620537043E-1,-1.664366722E-1,2.932781219E0
1.866712919E0,1.438938379E-1,-2.877104282E-1,3.110651016E0
1.876682919E0,1.873055696E-1,-4.561889172E-1,3.314842224E0
1.886667919E0,2.937912941E-1,-6.330542564E-1,3.722817421E0
1.896766919E0,4.385983944E-1,-8.404145241E-1,4.258695602E0
1.906729919E0,6.416189075E-1,-1.043603659E0,4.886696815E0
1.916805919E0,7.833658457E-1,-1.240356684E0,5.490464211E0
1.926741919E0,8.235567212E-1,-1.550134301E0,6.025249481E0
1.937642919E0,7.175558805E-1,-1.841564655E0,6.332511902E0
1.946747919E0,5.880181789E-1,-2.007495403E0,6.563633919E0
1.956692919E0,6.162094474E-1,-2.230496883E0,6.743257523E0
1.969622919E0,6.351867914E-1,-2.416066647E0,6.401969910E0
1.982422419E0,5.262100101E-1,-2.759022236E0,5.016158104E0
1.996665919E0,3.785983920E-1,-2.846227169E0,4.065438271E0
2.006653919E0,1.699247360E-1,-3.008331299E0,3.072274208E0
2.016988919E0,-1.445294619E-1,-3.166655540E0,2.093884468E0
2.026907919E0,-4.895759821E-1,-3.278926373E0,1.194346428E0
2.037118919E0,-8.363894224E-1,-3.365550518E0,5.625772476E-1
2.046630919E0,-1.136576772E0,-3.458559513E0,2.119083405E-1
2.056977919E0,-1.370234251E0,-3.536402702E0,1.368331909E-2
2.066672919E0,-1.490049481E0,-3.591980696E0,-1.446342468E-2
2.077637919E0,-1.544564128E0,-3.629255056E0,-2.248668671E-2
2.087472919E0,-1.544756770E0,-3.670679092E0,-1.441402435E-1
2.096656919E0,-1.508895636E0,-3.680628300E0,-3.366403580E-1
2.106684919E0,-1.440193653E0,-3.624095678E0,-5.504484177E-1
2.116767919E0,-1.380165339E0,-3.517050266E0,-7.728929520E-1
2.127098919E0,-1.292914271E0,-3.401340485E0,-9.748992920E-1
2.137062919E0,-1.160684824E0,-3.297472000E0,-1.198353767E0
2.146859919E0,-1.059908628E0,-3.228527069E0,-1.458075523E0
2.156809919E0,-9.812723398E-1,-3.148781776E0,-1.711097717E0
2.166695919E0,-9.363530874E-1,-3.038387060E0,-1.985238552E0
2.176826919E0,-8.346085548E-1,-2.951878309E0,-2.191729069E0
2.186692919E0,-7.490075827E-1,-2.886114359E0,-2.257900238E0
2.196670919E0,-7.258125544E-1,-2.787554502E0,-2.246912956E0
2.207158919E0,-6.577720642E-1,-2.510578156E0,-2.184908390E0
2.216692919E0,-6.553835869E-1,-2.529193401E0,-2.179217815E0
2.226673919E0,-5.646495819E-1,-2.359284878E0,-2.116242409E0
2.236677919E0,-4.041291475E-1,-2.091049194E0,-2.339110851E0
2.246935919E0,-3.380622864E-1,-1.936700463E0,-2.483756542E0
2.256703919E0,-3.251615763E-1,-1.746739268E0,-2.599363327E0
2.266696919E0,-2.965611219E-1,-1.551895738E0,-2.623723984E0
2.276988919E0,-3.203148842E-1,-1.418140650E0,-2.543769360E0
2.286656919E0,-3.652979136E-1,-1.270250797E0,-2.349418640E0
2.296784919E0,-3.643667698E-1,-1.132282615E0,-2.081705570E0
2.307792919E0,-2.705717087E-1,-1.045990229E0,-1.739539146E0
2.316679919E0,-1.717448235E-1,-1.001923561E0,-1.516103268E0
2.326676919E0,-1.016423702E-1,-9.511485100E-1,-1.258087158E0
2.336952919E0,-6.561589241E-2,-9.005296230E-1,-9.248609543E-1
2.346841919E0,-2.563834190E-2,-8.720180988E-1,-3.625764847E-1
2.356728919E0,1.176023483E-2,-8.555932045E-1,2.058448792E-1
2.366728919E0,1.171244383E-1,-8.825459480E-1,5.229082108E-1
2.376673919E0,1.870667934E-1,-8.779706955E-1,6.881103516E-1
2.386939919E0,2.570750713E-1,-7.852106094E-1,7.934350967E-1
2.396797919E0,4.618207216E-1,-5.516586304E-1,8.741159439E-1
2.406835919E0,6.021402478E-1,-3.028705120E-1,9.717245102E-1
2.416691919E0,5.878245831E-1,-9.935855865E-2,1.208703995E0
2.426644919E0,4.473949075E-1,-4.415845871E-2,1.488539696E0
2.436668919E0,1.897324324E-1,-1.438784599E-2,1.775633812E0
2.446893919E0,-5.476760864E-2,-1.299858093E-2,2.142719269E0
2.457647919E0,-2.402679920E-1,-6.776237488E-2,2.464333534E0
2.466830919E0,-4.239662886E-1,-5.234670639E-2,2.597667694E0
2.476955919E0,-5.631626844E-1,1.015973091E-2,2.572584152E0
2.486681919E0,-6.085358858E-1,3.894424438E-2,2.376513481E0
2.496773919E0,-5.216026306E-1,6.666278839E-2,1.996155739E0
2.507729919E0,-3.249891996E-1,4.615283012E-2,1.566445351E0
2.516687919E0,-9.757971764E-2,1.387810707E-2,1.314895630E0
2.526664919E0,1.873302460E-1,-4.837131500E-2,1.211944580E0
2.536701919E0,4.784633517E-1,-2.541658878E-1,1.389424324E0
2.546859919E0,7.125629187E-1,-5.167123079E-1,1.745625496E0
2.556789919E0,7.478583455E-1,-7.796648741E-1,2.286634445E0
2.566678919E0,6.210148335E-1,-1.108508825E0,2.761484146E0
2.577450919E0,4.169583321E-1,-1.420917749E0,3.266386032E0
2.586737919E0,1.605150700E-1,-1.649763823E0,3.747980118E0
2.596890919E0,-1.587156653E-1,-1.779018164E0,4.088439941E0
2.606743919E0,-3.552163243E-1,-1.847922444E0,4.248016357E0
2.616848919E0,-3.618456721E-1,-1.902291775E0,4.194743156E0
2.627626919E0,-1.977291703E-1,-1.932627678E0,3.850918770E0
2.636848919E0,6.098240614E-2,-1.910313725E0,3.282119751E0
2.646880919E0,3.230794668E-1,-1.840682983E0,2.600982666E0
2.656664919E0,5.349843502E-1,-1.710929155E0,1.845260620E0
2.666737919E0,7.631652355E-1,-1.610908747E0,1.130176544E0
2.676899919E0,1.019540548E0,-1.567979813E0,5.502080917E-1
2.686673919E0,1.235124350E0,-1.514222145E0,2.390985489E-1
2.697031919E0,1.293281317E0,-1.395015240E0,2.779865265E-2
2.706715919E0,1.300653458E0,-1.282203317E0,-9.404277802E-2
2.716710919E0,1.328213692E0,-1.213634253E0,-2.411041260E-1
2.726735919E0,1.342416286E0,-1.100263119E0,-3.884305954E-1
2.736733919E0,1.363317013E0,-9.906879067E-1,-4.607954025E-1
2.747379919E0,1.341125488E0,-8.266113400E-1,-5.853166580E-1
2.756750919E0,1.312639832E0,-8.277950883E-1,-5.867652893E-1
2.766938919E0,1.079241276E0,-5.676208735E-1,-9.775838852E-1
2.776696919E0,9.251177311E-1,-4.204598665E-1,-1.344409943E0
2.786695919E0,7.695608139E-1,-3.343276978E-1,-1.720625401E0
2.796726919E0,6.497696042E-1,-2.916629314E-1,-2.019439220E0
2.806697919E0,5.558650494E-1,-2.573410273E-1,-2.295950890E0
2.817177919E0,4.785974324E-1,-1.763858795E-1,-2.494565487E0
2.826669919E0,4.902765155E-1,-8.455097675E-2,-2.654791832E0
2.836817919E0,5.754413605E-1,-5.339133739E-2,-2.872598648E0
2.846695919E0,6.396426558E-1,-8.897721767E-2,-3.037646770E0
2.856691919E0,6.187109947E-1,-1.267032623E-1,-3.083432198E0
2.867204919E0,5.608509779E-1,-2.055292130E-1,-3.198779583E0
2.876767919E0,4.197126031E-1,-3.365833759E-1,-3.431285858E0
2.888090919E0,8.848360181E-2,-4.016757011E-1,-3.623094082E0
2.896660919E0,-3.089538813E-1,-3.681569099E-1,-3.591969490E0
2.906671919E0,-6.805224419E-1,-4.422466755E-1,-3.260223866E0
2.916733919E0,-1.013719082E0,-4.499623775E-1,-2.943097115E0
2.926694919E0,-1.264981151E0,-3.545769453E-1,-2.572204113E0
2.936935919E0,-1.351030111E0,-3.181159496E-1,-2.240456581E0
2.946832919E0,-1.334142685E0,-1.984586716E-1,-2.033767700E0
2.956813919E0,-1.121575952E0,-5.362939835E-2,-1.847795486E0
2.966692919E0,-8.329950571E-1,4.669976234E-2,-1.655509949E0
2.976676919E0,-4.850697517E-1,1.499803066E-1,-1.340446472E0
2.987231919E0,-2.793239951E-1,2.180519104E-1,-1.162291527E0
2.996654919E0,-1.814519763E-1,2.769451141E-1,-1.059054375E0
3.006692919E0,-1.528096795E-1,2.618985176E-1,-8.728752136E-1
3.016699919E0,-2.003586292E-1,1.900627613E-1,-5.525941849E-1
3.026823919E0,-4.021476507E-1,1.642632484E-1,-1.788272858E-1
3.037460919E0,-5.849210620E-1,1.504278183E-1,2.516784668E-1
3.046729919E0,-7.007441521E-1,4.923248291E-2,7.714691162E-1
3.059511919E0,-8.944405317E-1,1.163835526E-1,1.177579880E0
3.076671919E0,-1.188758254E0,2.121729851E-1,2.098860741E0
3.086691919E0,-1.295202732E0,3.336873055E-1,2.314825058E0
3.096655919E0,-1.334574938E0,4.126467705E-1,2.409048080E0
3.107025919E0,-1.293629646E0,4.763796329E-1,2.482851028E0
3.116738919E0,-1.142649531E0,5.906286240E-1,2.617156982E0
3.127033919E0,-7.686659098E-1,6.491787434E-1,2.786899567E0
3.136673919E0,-2.498492599E-1,5.484237671E-1,2.619336128E0
3.146659919E0,2.412213981E-1,1.991302967E-1,2.200976372E0
3.156955919E0,3.664244711E-1,-8.458113670E-2,1.856352806E0
3.166815919E0,1.093888730E-1,-1.359574795E-1,1.614709854E0
3.177520919E0,-2.064899802E-1,-2.810782194E-1,1.619489670E0
3.186666919E0,-4.431913197E-1,-6.058418751E-1,1.947624207E0
3.196854919E0,-6.546050310E-1,-8.738703728E-1,2.426168442E0
3.206674919E0,-8.101959229E-1,-9.803830385E-1,3.002862930E0
3.216974919E0,-7.750772238E-1,-1.267312765E0,3.726970673E0
3.226701919E0,-7.203410864E-1,-1.561825991E0,4.508520126E0
3.236778919E0,-7.447894216E-1,-1.717583776E0,4.832960129E0
3.246623919E0,-8.056160212E-1,-1.845796227E0,4.750141144E0
3.256670919E0,-9.073279500E-1,-1.934882641E0,4.318458557E0
3.267147919E0,-9.661343098E-1,-2.005868912E0,3.643719673E0
3.276696919E0,-1.057640672E0,-2.092684031E0,2.725868225E0
3.286888919E0,-1.228012681E0,-2.056993961E0,1.739232063E0
3.296809919E0,-1.361793041E0,-1.983381391E0,-3.141212463E-2
3.306727919E0,-1.481489301E0,-1.813078403E0,-5.981740952E-1
3.316739919E0,-1.532732248E0,-1.689900875E0,-1.072161674E0
3.326820919E0,-1.520530581E0,-1.636614442E0,-1.327419281E0
3.336685919E0,-1.446960092E0,-1.641537428E0,-1.262351990E0
3.346724919E0,-1.398059607E0,-1.622712851E0,-1.072831154E0
3.356679919E0,-1.380275011E0,-1.604567289E0,-8.733682632E-1
3.366746919E0,-1.376417875E0,-1.618622780E0,-6.585655212E-1
3.377842919E0,-1.470534563E0,-1.611041307E0,-3.901529312E-1
3.386688919E0,-1.587090373E0,-1.572862387E0,-2.320718765E-1
3.397391919E0,-1.711977005E0,-1.525658727E0,-6.863117218E-2
3.406716919E0,-1.795413256E0,-1.460455298E0,7.792949677E-2
3.416721919E0,-1.787535787E0,-1.415283203E0,1.581830978E-1
3.426685919E0,-1.735013723E0,-1.354903221E0,1.942834854E-1
3.436749919E0,-1.660898566E0,-1.239988565E0,2.374038696E-1
3.446928919E0,-1.543736696E0,-1.085266471E0,2.062425613E-1
3.456824919E0,-1.414364934E0,-1.002571344E0,2.566623688E-2
3.466927919E0,-1.297516108E0,-8.874164820E-1,-3.457393646E-1
3.476676919E0,-1.141090512E0,-8.200708032E-1,-8.832111359E-1
3.486837919E0,-9.697791934E-1,-7.780177593E-1,-1.443036079E0
3.496934919E0,-8.832712173E-1,-6.651054621E-1,-1.964307308E0
3.506708919E0,-7.446408272E-1,-5.312266350E-1,-2.435794353E0
3.516679919E0,-5.755374432E-1,-4.809869528E-1,-2.827612877E0
3.526713919E0,-4.234024286E-1,-4.370739460E-1,-3.115776062E0
3.536902919E0,-3.192663491E-1,-3.648580313E-1,-3.304089069E0
3.546842919E0,-2.472403049E-1,-3.265261650E-1,-3.490632057E0
3.556827919E0,-1.653707027E-1,-2.463334799E-1,-3.496767521E0
3.567291919E0,-1.257311106E-1,-1.907119751E-1,-3.539922237E0
3.576808919E0,-1.748653054E-1,-5.041170120E-2,-3.584984303E0
3.586707919E0,-2.670301795E-1,1.003413200E-1,-3.503495216E0
3.596610919E0,-3.227452636E-1,1.867406368E-1,-3.316415310E0
3.606906919E0,-4.911729097E-1,2.975752354E-1,-3.135825157E0
3.617483919E0,-6.632776260E-1,4.493670464E-1,-2.960625172E0
3.626696919E0,-6.487537026E-1,5.235190392E-1,-2.676689148E0
3.636662919E0,-5.603888631E-1,5.911128521E-1,-2.346189499E0
3.646841919E0,-4.045241475E-1,6.782014370E-1,-1.946900368E0
3.656825919E0,-1.768332124E-1,7.326409817E-1,-1.458517075E0
3.666697919E0,8.294957876E-2,7.872014046E-1,-8.504428864E-1
3.676667919E0,3.005389273E-1,7.796843052E-1,-2.161369324E-1
3.686717919E0,4.812652767E-1,6.624395847E-1,3.083229065E-1
3.696693919E0,5.310856104E-1,5.255620480E-1,7.955961227E-1
3.707621919E0,4.714085162E-1,4.265348911E-1,1.184947014E0
3.716681919E0,2.720500827E-1,4.261198044E-1,1.518983841E0
3.727017919E0,-5.474165082E-2,4.743130207E-1,1.861066818E0
3.736849919E0,-4.326920509E-1,5.299847126E-1,2.133856773E0
3.746896919E0,-7.730633020E-1,5.595121384E-1,2.328433037E0
3.756707919E0,-1.012923360E0,5.754172802E-1,2.588398933E0
3.767354919E0,-1.048526168E0,5.564196110E-1,2.767256737E0
3.777113919E0,-9.112752676E-1,4.770309925E-1,2.828911781E0
3.786828919E0,-7.224059105E-1,4.296090603E-1,2.882248878E0
3.796669919E0,-5.055411458E-1,4.344935417E-1,2.902957916E0
3.806665919E0,-2.364891618E-1,4.142680168E-1,2.634316444E0
3.816900919E0,-4.016262293E-2,3.691260815E-1,2.296730995E0
3.828247919E0,2.187280357E-1,5.717101097E-1,1.621444702E0
3.836885919E0,3.575193882E-1,5.820543766E-1,1.585088730E0
3.846853919E0,4.296303391E-1,5.868508816E-1,1.567358017E0
3.856806919E0,4.638547301E-1,5.498509407E-1,1.764798164E0
3.866723919E0,4.408804774E-1,3.830535412E-1,2.024291992E0
3.876628919E0,3.842293620E-1,5.763840675E-2,2.222614288E0
3.886662919E0,3.946629465E-1,-3.743760586E-1,2.579106331E0
3.897392919E0,3.400523663E-1,-7.841560841E-1,2.669932365E0
3.906852919E0,2.418839335E-1,-1.051314592E0,2.606074333E0
3.916827919E0,1.819103956E-1,-1.237469435E0,2.562940598E0
3.926906919E0,1.615930796E-1,-1.411423683E0,2.337930679E0
3.936718919E0,1.225533485E-1,-1.500969172E0,1.944093704E0
3.946739919E0,-5.866944790E-2,-1.498311758E0,1.504817009E0
3.956717919E0,-2.449484468E-1,-1.422464848E0,1.081285477E0
3.966707919E0,-2.962648869E-1,-1.399891376E0,8.495855331E-1
3.976666919E0,-2.729742229E-1,-1.360993028E0,7.286386490E-1
3.986678919E0,-1.639364362E-1,-1.232110739E0,5.032043457E-1
3.997864919E0,4.879015684E-2,-1.125118017E0,2.542095184E-1
4.006671919E0,3.091520071E-1,-9.573695064E-1,-4.861927032E-2
4.016801919E0,4.849768281E-1,-7.654641867E-1,-2.837762833E-1
4.026670919E0,6.201741099E-1,-5.928210020E-1,-3.455343246E-1
4.036685919E0,6.333771944E-1,-4.656697512E-1,-2.819566727E-1
4.046709919E0,6.619472504E-1,-3.536063433E-1,-9.007740021E-2
4.056657919E0,6.794970036E-1,-2.406585217E-1,5.545997620E-2
4.067975919E0,5.468289256E-1,-1.542283297E-1,-1.179065704E-1
4.076832919E0,4.507184029E-1,-7.809185982E-2,-4.594469070E-1
4.086862919E0,3.072386384E-1,1.755332947E-2,-9.742269516E-1
4.096654919E0,1.777491570E-1,6.727921963E-2,-1.529037476E0
4.106816919E0,4.297780991E-2,1.146634817E-1,-1.986345291E0
4.116939919E0,-4.880964756E-2,2.404576540E-1,-2.387695312E0
4.126639919E0,-4.458677769E-2,3.494664431E-1,-2.712019444E0
4.136791919E0,2.629667521E-2,3.903852701E-1,-2.917989731E0
4.146665919E0,1.166728437E-1,3.528289795E-1,-3.104356289E0
4.156677919E0,1.750493646E-1,2.791986465E-1,-3.273257732E0
4.166894919E0,1.475473046E-1,2.363629341E-1,-3.477253914E0
4.176657919E0,1.130597591E-1,2.282474041E-1,-3.602545738E0
4.186873919E0,8.673626184E-2,1.556863785E-1,-3.649672031E0
4.196898919E0,5.498719215E-2,2.367596626E-1,-3.465481281E0
4.206871919E0,4.072260857E-2,1.938347816E-1,-3.266934872E0
4.217106919E0,-9.365233779E-2,1.654853821E-1,-3.089397907E0
4.227044919E0,-2.862287164E-1,2.611191273E-1,-2.844161034E0
4.236904919E0,-4.595355093E-1,1.937923431E-1,-2.866806030E0
4.246684919E0,-6.829137206E-1,2.600471973E-1,-3.047687531E0
4.256810919E0,-8.898993134E-1,3.685786724E-1,-2.889121532E0
4.266855919E0,-9.029812217E-1,2.613658905E-1,-2.500975609E0
4.276812919E0,-9.147156477E-1,3.408653736E-1,-2.092006207E0
4.286866919E0,-8.298227787E-1,4.258697033E-1,-1.688769817E0
4.296873919E0,-5.032699704E-1,3.058581352E-1,-1.231428146E0
4.307868919E0,-1.200957447E-1,2.076213360E-1,-5.383415222E-1
4.316703919E0,7.031530142E-2,2.361240387E-1,2.953319550E-1
4.326852919E0,1.855887622E-1,2.138640881E-1,1.043780327E0
4.336700919E0,9.292709827E-2,1.320066452E-1,1.723039627E0
4.346995919E0,-3.054707348E-1,1.971037388E-1,2.278259277E0
4.356772919E0,-8.480890989E-1,3.291206360E-1,2.843684196E0
4.367095919E0,-1.340525985E0,4.432916641E-1,3.964063644E0
4.377199919E0,-1.664125562E0,5.464191437E-1,4.045093536E0
4.386877919E0,-1.491939306E0,6.075327396E-1,3.892116547E0
4.396712919E0,-1.239184737E0,6.948945522E-1,3.648444176E0
4.406856919E0,-9.740976095E-1,8.389270306E-1,3.238698959E0
4.416711919E0,-6.951345205E-1,9.258663654E-1,2.551809311E0
4.427419919E0,-4.330776632E-1,9.245226383E-1,1.865856171E0
4.436931919E0,-1.945787221E-1,7.644007206E-1,1.579599380E0
4.446736919E0,-8.256614953E-2,8.254814148E-1,1.668335915E0
4.457010919E0,2.269153297E-2,8.176567554E-1,1.706657410E0
4.466892919E0,1.746055484E-1,5.340180397E-1,2.199392319E0
4.476857919E0,1.191283315E-1,2.360434532E-1,2.505516052E0
4.486895919E0,-3.694200516E-2,-2.285416126E-1,3.000245094E0
4.496934919E0,-4.416410327E-1,-5.648550987E-1,3.311002731E0
4.506691919E0,-8.287814856E-1,-1.048641562E0,3.699120522E0
4.516695919E0,-1.330293775E0,-1.331639767E0,4.190444946E0
4.526817919E0,-1.862237453E0,-1.501306057E0,4.303199768E0
4.536691919E0,-2.219876051E0,-1.625618696E0,3.962030411E0
4.547908919E0,-2.437070608E0,-1.695967793E0,3.382844925E0
4.556866919E0,-2.541895151E0,-1.672813058E0,2.603302956E0
4.566903919E0,-2.580291510E0,-1.570956826E0,1.753513336E0
4.576849919E0,-2.522282600E0,-1.391454339E0,1.001929283E0
4.586697919E0,-2.310385466E0,-1.292103767E0,3.336439133E-1
4.596674919E0,-1.998676658E0,-1.246097326E0,-2.225313187E-1
4.606928919E0,-1.685998201E0,-1.203203082E0,-6.065044403E-1
4.616717919E0,-1.372894645E0,-1.152856588E0,-9.806346893E-1
4.626937919E0,-1.083323002E0,-1.123752475E0,-1.273068428E0
4.636971919E0,-9.072596431E-1,-1.105379343E0,-1.458488464E0
4.646901919E0,-8.766487241E-1,-1.078354597E0,-1.631152153E0
4.657247919E0,-9.879468679E-1,-1.064858675E0,-1.618975163E0
4.666716919E0,-1.139422178E0,-1.131117225E0,-1.561030388E0
4.676740919E0,-1.353924394E0,-1.184641361E0,-1.528759003E0
4.686685919E0,-1.579271913E0,-1.193674326E0,-1.546913147E0
4.696655919E0,-1.749982953E0,-1.201910734E0,-1.682528019E0
4.707318919E0,-1.913154602E0,-1.103965282E0,-1.932803631E0
4.716843919E0,-1.981261849E0,-9.984809160E-1,-2.136041641E0
4.726708919E0,-1.934600234E0,-9.382457137E-1,-2.243077755E0
4.736664919E0,-1.774817467E0,-8.945192695E-1,-2.144175053E0
4.746660919E0,-1.606536150E0,-8.128674030E-1,-2.013848782E0
4.756803919E0,-1.388125420E0,-8.389050961E-1,-1.886670113E0
4.766995919E0,-1.138301849E0,-8.113012314E-1,-1.640155792E0
4.777087919E0,-9.846372008E-1,-7.719501257E-1,-1.605526924E0
4.786679919E0,-8.874176145E-1,-8.006628752E-1,-1.760048389E0
4.796683919E0,-9.491660595E-1,-8.073010445E-1,-2.044171810E0
4.806700919E0,-1.118403435E0,-7.040861845E-1,-2.375348568E0
4.816753919E0,-1.188902736E0,-6.333423853E-1,-2.502045155E0
4.826866919E0,-1.179097533E0,-5.744769573E-1,-2.412264824E0
4.836906919E0,-1.118195295E0,-5.233427286E-1,-2.228726864E0
4.847022919E0,-1.116858959E0,-4.304275513E-1,-1.916504860E0
4.856729919E0,-1.137347460E0,-4.663333893E-1,-1.717072487E0
4.867023919E0,-1.058590412E0,-2.046508789E-1,-1.487241745E0
4.876690919E0,-7.117804289E-1,-9.674715996E-2,-8.739128113E-1
4.886882919E0,-3.254132271E-1,-1.816329956E-1,-7.330751419E-1
4.897056919E0,5.897736549E-2,-5.433058739E-2,9.463596344E-2
4.906700919E0,4.505606890E-1,-3.713560104E-2,9.835720062E-2
4.916751919E0,6.862331629E-1,6.840848923E-2,1.083169937E0
4.926870919E0,5.558251143E-1,3.574013710E-2,1.398651123E0
4.936681919E0,3.403724432E-1,3.855037689E-2,1.559494019E0
4.946724919E0,1.116037965E-1,1.129932404E-1,1.740471840E0
4.956651919E0,-7.765865326E-2,1.884686947E-1,1.983897209E0
4.966930919E0,-1.116157174E-1,2.347280979E-1,2.271843910E0
4.976701919E0,-3.552764654E-2,2.795360088E-1,2.528495789E0
4.986949919E0,-3.156626225E-2,3.639748096E-1,2.672442436E0
4.998398919E0,1.065266132E-2,4.379935265E-1,2.937017441E0
5.006666919E0,1.886854768E-1,4.070706367E-1,3.103011131E0
5.016675919E0,4.149375558E-1,3.172881603E-1,3.022805214E0
5.026653919E0,5.479002595E-1,2.373459339E-1,2.648321152E0
5.036778919E0,6.318710446E-1,2.068817616E-1,2.249806404E0
5.047221919E0,6.719294786E-1,2.333357334E-1,1.803298950E0
5.056706919E0,6.974793673E-1,2.330279350E-1,1.548732758E0
5.066694919E0,6.719055176E-1,2.138676643E-1,1.591747284E0
5.076656919E0,6.454788446E-1,1.521184444E-1,1.817927361E0
5.086879919E0,6.051144004E-1,1.502013206E-2,2.199394226E0
5.097740919E0,5.411681533E-1,-2.295846939E-1,2.596971512E0
5.106685919E0,4.337106347E-1,-4.552425146E-1,3.016736031E0
5.116658919E0,3.751442432E-1,-6.852965355E-1,3.189322472E0
5.126695919E0,3.549125195E-1,-9.278023243E-1,3.101142883E0
5.136900919E0,3.342007399E-1,-1.105298042E0,2.836954117E0
5.147369919E0,2.993301153E-1,-1.226862192E0,2.410547256E0
5.156931919E0,3.276039064E-1,-1.300444365E0,1.930871964E0
5.166671919E0,3.817625046E-1,-1.349347591E0,1.614633560E0
5.176708919E0,4.623056650E-1,-1.301199317E0,1.295207024E0
5.186677919E0,5.632121563E-1,-1.218871593E0,8.885593414E-1
5.196655919E0,6.656656861E-1,-1.163276076E0,4.289932251E-1
5.206658919E0,7.598836422E-1,-1.149642706E0,-3.980541229E-2
5.216900919E0,8.640065193E-1,-1.144614935E0,-4.720449448E-1
5.226677919E0,9.780837297E-1,-1.113206983E0,-8.044576645E-1
5.236658919E0,1.032496810E0,-1.097239256E0,-1.009007454E0
5.247362919E0,9.744244814E-1,-1.040118933E0,-1.180055618E0
5.256698919E0,8.238642216E-1,-9.663158655E-1,-1.423646927E0
5.268135919E0,5.994117260E-1,-8.917039633E-1,-1.647830963E0
5.276719919E0,3.690783083E-1,-8.041193485E-1,-1.733415604E0
5.287406919E0,1.775386035E-1,-7.204755545E-1,-1.716388226E0
5.297625919E0,4.825170338E-2,-6.235104799E-1,-1.621817589E0
5.306726919E0,-7.238501310E-2,-4.791717529E-1,-1.536568642E0
5.316660919E0,-1.223589182E-1,-3.699477911E-1,-1.471940994E0
5.326812919E0,-1.433738768E-1,-3.088412285E-1,-1.426266670E0
5.336707919E0,-1.473028958E-1,-1.738752127E-1,-1.415770531E0
5.346690919E0,-9.291145205E-2,-1.506723166E-1,-1.513145447E0
5.356778919E0,-5.145823956E-2,-1.955176592E-1,-1.630524635E0
5.366911919E0,-9.356260300E-2,-1.917442083E-1,-1.815514565E0
5.376696919E0,-1.070742309E-1,-2.208548784E-1,-2.082340717E0
5.386692919E0,-1.715065539E-1,-2.634097338E-1,-2.445312023E0
5.396727919E0,-2.522346377E-1,-2.065258026E-1,-2.720062256E0
5.406647919E0,-2.609584332E-1,-1.870999336E-1,-2.807320118E0
5.416669919E0,-2.705724835E-1,-2.140684128E-1,-2.700669289E0
5.427100919E0,-3.164028525E-1,-2.430512905E-1,-2.687528133E0
5.436773919E0,-4.146452248E-1,-2.234070301E-1,-2.674222469E0
5.446672919E0,-4.678907096E-1,-2.101309299E-1,-2.537248611E0
5.456683919E0,-3.985935152E-1,-1.526851654E-1,-2.356388569E0
5.466682919E0,-2.715735435E-1,-1.375536919E-1,-2.472818851E0
5.476695919E0,-1.540779173E-1,-8.097863197E-2,-2.381814480E0
5.486688919E0,-1.063960195E-1,-3.238773346E-2,-2.062624931E0
5.496824919E0,-6.055617332E-2,1.386792660E-1,-1.869227409E0
5.507326919E0,2.024111152E-2,1.778604984E-1,-1.817209244E0
5.516963919E0,7.657578588E-2,1.663036346E-1,-1.711004734E0
5.527020919E0,6.646475196E-2,2.027425766E-1,-1.369609833E0
5.536845919E0,1.555296779E-2,1.905710697E-1,-1.127518654E0
5.546677919E0,-1.288113594E-1,1.694355011E-1,-8.137512207E-1
5.556707919E0,-3.425655663E-1,1.814906597E-1,-2.761592865E-1
5.566860919E0,-6.108404398E-1,2.794079781E-1,5.561466217E-1
5.576802919E0,-9.271861315E-1,4.780988693E-1,1.324171066E0
5.586837919E0,-1.115298510E0,5.809311867E-1,1.834669113E0
5.596991919E0,-1.126810074E0,6.330018044E-1,2.031327248E0
5.606730919E0,-1.029326081E0,7.954168320E-1,2.180289268E0
5.617018919E0,-8.640556335E-1,9.569363594E-1,2.383733749E0
5.626690919E0,-5.824963450E-1,9.182813168E-1,2.594293594E0
5.636658919E0,-2.316592932E-1,8.983833790E-1,2.667964935E0
5.646658919E0,9.672814608E-2,9.646413326E-1,2.366865158E0
5.656654919E0,3.413237333E-1,1.125290155E0,2.160696030E0
5.666887919E0,5.855349898E-1,9.379365444E-1,2.806200027E0
5.676894919E0,4.730031788E-1,1.150740623E0,2.462484360E0
5.686707919E0,2.733216882E-1,1.468479633E0,1.221240997E0
5.696588919E0,3.457975388E-1,1.467399120E0,-1.672306061E-1
5.706701919E0,2.766392827E-1,1.033375025E0,1.125967026E0
5.717736919E0,-1.475429535E-2,7.716298103E-1,2.647136688E0
5.726684919E0,-4.212355614E-1,9.981751442E-1,2.753837585E0
5.736872919E0,-3.793370724E-1,5.265173912E-1,3.006425858E0
5.746658919E0,-6.340768933E-1,-8.782076836E-2,4.951384544E0
5.757038919E0,-1.208118558E0,-3.298981190E-1,5.972211838E0
5.766841919E0,-1.938675404E0,-2.761379480E-1,5.558271408E0
5.776744919E0,-2.317719221E0,-5.359344482E-1,4.850145340E0
5.786725919E0,-2.624528646E0,-7.982854247E-1,4.327396393E0
5.796658919E0,-2.949713230E0,-9.276920557E-1,3.626481056E0
5.806996919E0,-3.115496159E0,-9.292199612E-1,2.579037666E0
5.820118919E0,-3.049180508E0,-9.399429560E-1,1.280622482E0
5.836729919E0,-2.562812090E0,-8.931906223E-1,-7.131500244E-1
5.846663919E0,-2.297573090E0,-8.848608732E-1,-1.473697662E0
5.856659919E0,-2.025728703E0,-8.690878749E-1,-2.004037857E0
5.866660919E0,-1.804493666E0,-8.563179970E-1,-2.277631283E0
5.876874919E0,-1.656749964E0,-8.213940859E-1,-2.269584179E0
5.886663919E0,-1.591642976E0,-8.036366701E-1,-1.954477787E0
5.896917919E0,-1.584557056E0,-8.641107082E-1,-1.512055397E0
5.906742919E0,-1.653604865E0,-9.652622342E-1,-1.112748146E0
5.916882919E0,-1.827023745E0,-1.021212339E0,-8.910198212E-1
5.926931919E0,-2.057805538E0,-1.019830942E0,-7.883224487E-1
5.936704919E0,-2.252364159E0,-9.972907901E-1,-8.199939728E-1
5.946853919E0,-2.328597784E0,-9.814566970E-1,-9.326086044E-1
5.956913919E0,-2.238205433E0,-9.628880620E-1,-1.127073288E0
5.966685919E0,-2.078208208E0,-8.935352564E-1,-1.429179192E0
5.976718919E0,-1.881750107E0,-7.744611502E-1,-1.870066643E0
5.986701919E0,-1.646572590E0,-7.131959200E-1,-2.876014233E0
5.996698919E0,-1.383618355E0,-5.243860483E-1,-3.336701870E0
6.006639919E0,-1.295450449E0,-4.804875851E-1,-3.566672325E0
6.016667919E0,-1.204647064E0,-4.628614187E-1,-3.598178864E0
6.027148919E0,-1.087270260E0,-4.533540010E-1,-3.627604008E0
6.037116919E0,-9.719162583E-1,-4.826440811E-1,-3.533286572E0
6.046651919E0,-9.467773438E-1,-4.239856005E-1,-3.409985065E0
6.056653919E0,-9.561470747E-1,-3.216966391E-1,-3.293237209E0
6.067154919E0,-9.603019357E-1,-2.960624695E-1,-3.193511009E0
6.076787919E0,-1.065677285E0,-2.629020214E-1,-2.982474327E0
6.086684919E0,-1.178601980E0,-2.142835855E-1,-2.710292816E0
6.096816919E0,-1.208123922E0,-1.906832457E-1,-2.327456951E0
6.106856919E0,-1.140063763E0,-1.565506458E-1,-1.789721012E0
6.116701919E0,-9.895156026E-1,-1.518690586E-1,-1.578281403E0
6.126692919E0,-8.622304201E-1,-1.612029076E-1,-1.298867226E0
6.136849919E0,-8.005989194E-1,-7.693243027E-2,-9.343900681E-1
6.146750919E0,-6.525166035E-1,-1.629948616E-2,-4.638509750E-1
6.156846919E0,-4.530189633E-1,3.172039986E-2,8.570289612E-2
6.166682919E0,-3.201411963E-1,9.008932114E-2,5.557918549E-1
6.176710919E0,-2.416784167E-1,1.152601242E-1,1.078979492E0
6.186882919E0,-2.205951214E-1,1.452188492E-1,1.673514366E0
6.196659919E0,-2.682057023E-1,1.609079838E-1,2.236067772E0
6.207158919E0,-2.650998235E-1,1.286826134E-1,2.827035904E0
6.216672919E0,-2.349239588E-1,1.316184998E-1,3.301671982E0
6.226721919E0,-2.054115534E-1,1.187182665E-1,3.453582764E0
6.236688919E0,-2.221885920E-1,1.343048811E-1,3.472809792E0
6.246728919E0,-2.438541651E-1,2.123585939E-1,3.419108391E0
6.256788919E0,-2.930935025E-1,3.252472878E-1,3.331929207E0
6.266871919E0,-3.058068156E-1,4.668427706E-1,3.226695061E0
6.276725919E0,-2.008115053E-1,5.586904287E-1,2.994095802E0
6.286673919E0,1.304972172E-2,5.504347086E-1,2.619100571E0
6.296818919E0,2.913828790E-1,5.027682781E-1,2.185099602E0
6.306849919E0,6.245073676E-1,4.330404997E-1,1.771763802E0
6.316976919E0,8.639481068E-1,3.353629112E-1,1.358853340E0
6.327185919E0,8.868463039E-1,3.017797470E-1,1.056759834E0
6.336727919E0,7.395367026E-1,2.610794306E-1,1.088028908E0
6.346692919E0,6.091096997E-1,6.541430950E-2,1.492465019E0
6.356986919E0,5.025181174E-1,-2.055619955E-1,2.157567024E0
6.366700919E0,2.211356759E-1,-4.510370493E-1,2.930523872E0
6.376739919E0,-8.649879694E-2,-6.816875935E-1,3.793621063E0
6.386706919E0,-2.843324244E-1,-8.985452056E-1,4.569970131E0
6.396756919E0,-3.195811510E-1,-1.079021931E0,4.825773239E0
6.406945919E0,-2.603366077E-1,-1.191263795E0,4.476920128E0
6.416808919E0,-1.949903667E-1,-1.213749886E0,3.717623711E0
6.426845919E0,-1.977589726E-2,-1.192311287E0,2.790132523E0
6.436699919E0,2.890184522E-1,-1.150387883E0,1.831422806E0
6.446747919E0,6.534134150E-1,-1.055171013E0,9.164924622E-1
6.456646919E0,1.034238458E0,-9.247463346E-1,7.703399658E-2
6.466853919E0,1.411312222E0,-8.518059850E-1,-6.279211044E-1
6.476593919E0,1.694184780E0,-8.197752833E-1,-1.266543388E0
6.486716919E0,1.824050784E0,-8.475540876E-1,-1.813314438E0
6.496807919E0,1.828356862E0,-8.529506922E-1,-2.184642315E0
6.507027919E0,1.654407144E0,-8.185827732E-1,-2.542033195E0
6.517178919E0,1.183483958E0,-7.729159594E-1,-2.435986042E0
6.526729919E0,9.838180542E-1,-7.683292627E-1,-2.284200668E0
6.537539919E0,8.579516411E-1,-7.448842525E-1,-2.170610428E0
6.546678919E0,7.418327332E-1,-7.173503637E-1,-1.980271339E0
6.556681919E0,5.750391483E-1,-6.216431856E-1,-1.732303143E0
6.566890919E0,4.382794201E-1,-5.222600698E-1,-1.504091263E0
6.576856919E0,3.634373546E-1,-4.360992908E-1,-1.315221786E0
6.586703919E0,3.255270123E-1,-3.648556471E-1,-1.255454063E0
6.596659919E0,3.137688637E-1,-2.867287397E-1,-1.340931892E0
6.606703919E0,3.347429037E-1,-2.238174677E-1,-1.493450165E0
6.618724919E0,3.883809745E-1,-1.520495415E-1,-1.667213917E0
6.626748919E0,4.794350266E-1,-5.540716648E-2,-1.921717644E0
6.636711919E0,6.181268096E-1,3.350746632E-2,-2.094143867E0
6.646867919E0,7.401334643E-1,1.307827234E-1,-2.254786015E0
6.656683919E0,7.927342653E-1,2.474017143E-1,-2.450467110E0
6.666897919E0,7.779424191E-1,3.044530153E-1,-2.700988770E0
6.676655919E0,7.502452731E-1,3.458948135E-1,-2.808711052E0
6.686888919E0,6.670669317E-1,3.986470699E-1,-2.819622040E0
6.696833919E0,6.069782376E-1,4.449162483E-1,-2.709675789E0
6.706679919E0,5.385462046E-1,4.745640755E-1,-2.568477631E0
6.716660919E0,5.495891571E-1,4.861299992E-1,-2.454402924E0
6.726855919E0,5.870539546E-1,4.987490177E-1,-2.411196709E0
6.736687919E0,6.485592723E-1,4.984385967E-1,-2.443404675E0
6.746675919E0,6.331932545E-1,5.107028484E-1,-2.377977371E0
6.756665919E0,5.559844971E-1,5.652754307E-1,-2.269011021E0
6.767558919E0,4.920653999E-1,5.407683849E-1,-2.078138828E0
6.776783919E0,3.203788102E-1,5.346968174E-1,-1.790553570E0
6.786931919E0,6.871941686E-2,5.570664406E-1,-1.385383606E0
6.796713919E0,-1.974239349E-1,5.520095825E-1,-8.904504776E-1
6.806852919E0,-5.020956993E-1,5.471420288E-1,-3.729991913E-1
6.816726919E0,-8.471573591E-1,5.485401154E-1,2.102947235E-1
6.826704919E0,-1.219356537E0,5.966858864E-1,8.636455536E-1
6.836743919E0,-1.509400606E0,6.540286541E-1,1.547875404E0
6.846856919E0,-1.653396010E0,7.515180111E-1,2.318874359E0
6.856998919E0,-1.564614296E0,8.106137514E-1,2.787030220E0
6.867074919E0,-1.332551003E0,9.070416689E-1,2.833353043E0
6.876756919E0,-1.112079382E0,9.609158039E-1,2.979354858E0
6.887627919E0,-9.740682840E-1,1.115385294E0,2.996575356E0
6.896724919E0,-8.506061435E-1,1.139192820E0,2.771259308E0
6.906843919E0,-7.163296342E-1,1.108481884E0,2.396649361E0
6.917022919E0,-6.922405362E-1,1.036231399E0,1.985069275E0
6.926671919E0,-7.587183118E-1,9.796755314E-1,1.627758026E0
6.937017919E0,-7.635322809E-1,8.453840017E-1,1.287448883E0
6.946977919E0,-6.866701841E-1,8.239042759E-1,9.076652527E-1
6.956879919E0,-6.180628538E-1,9.403482676E-1,8.955354691E-1
6.966864919E0,-4.497562647E-1,5.538841486E-1,2.271865845E0
6.976667919E0,-7.297062278E-1,8.022449017E-1,2.412462234E0
6.986740919E0,-6.203908920E-1,3.968955278E-1,2.665293694E0
6.996659919E0,-5.977347493E-1,-2.770113945E-1,4.064947128E0
7.006691919E0,-1.188331842E0,-3.046888113E-1,4.599637985E0
7.016854919E0,-1.525940418E0,-6.007635593E-1,4.581826210E0
7.026961919E0,-1.741007805E0,-1.209620714E0,5.349577904E0
7.037810919E0,-2.805666924E0,-1.192086339E0,3.649267197E0
7.046674919E0,-2.823927879E0,-1.181512475E0,3.646921158E0
7.057809919E0,-2.870864868E0,-1.363671660E0,2.592153549E0
7.066710919E0,-2.749535799E0,-9.767053127E-1,4.775314331E-1
7.076707919E0,-2.418427706E0,-8.219505548E-1,-4.118652344E-1
7.087218919E0,-1.963867426E0,-7.689435482E-1,-1.125722885E0
7.096683919E0,-1.523475409E0,-7.429293990E-1,-1.591325760E0
7.106674919E0,-1.237836719E0,-6.966817379E-1,-1.666000843E0
7.116904919E0,-1.103366137E0,-6.327356100E-1,-1.448054314E0
7.126655919E0,-1.179880619E0,-6.588978767E-1,-9.788742065E-1
7.136909919E0,-1.417072892E0,-7.265099287E-1,-4.525060654E-1
7.146862919E0,-1.740437984E0,-7.822548747E-1,-1.082572937E-1
7.156759919E0,-2.084021330E0,-7.991805673E-1,-1.374149323E-2
7.166658919E0,-2.345380306E0,-7.831668258E-1,-1.385564804E-1
7.176714919E0,-2.486564398E0,-7.438505292E-1,-4.259052277E-1
7.186632919E0,-2.496954203E0,-7.049435973E-1,-8.657073975E-1
7.196708919E0,-2.393841505E0,-6.591401696E-1,-1.346076965E0
7.206932919E0,-2.281236172E0,-5.577592254E-1,-1.845538139E0
7.216794919E0,-2.076458454E0,-4.548963308E-1,-2.315383911E0
7.227010919E0,-1.860868573E0,-3.667147160E-1,-2.730021954E0
7.236679919E0,-1.610563278E0,-2.802598476E-1,-3.130518436E0
7.247203919E0,-1.378983974E0,-2.540452480E-1,-3.345045567E0
7.256773919E0,-1.177685738E0,-2.610610723E-1,-3.450589180E0
7.266750919E0,-1.059837818E0,-2.641568184E-1,-3.445916176E0
7.276825919E0,-9.939237833E-1,-2.099901438E-1,-3.396909237E0
7.286661919E0,-9.455674887E-1,-1.915501356E-1,-3.311429024E0
7.296655919E0,-8.728795648E-1,-1.864186525E-1,-3.214617252E0
7.307093919E0,-8.446530104E-1,-1.321133375E-1,-3.083213806E0
7.316700919E0,-7.885584831E-1,-8.774983883E-2,-3.066072941E0
7.326723919E0,-7.121527195E-1,-6.131637096E-2,-3.039724827E0
7.337390919E0,-6.685683131E-1,5.478191376E-2,-3.054311275E0
7.346692919E0,-5.400186181E-1,2.057783604E-1,-2.905390263E0
7.356677919E0,-3.682948351E-1,3.344074488E-1,-2.594962597E0
7.366969919E0,-1.718964577E-1,4.206023216E-1,-2.135734558E0
7.376657919E0,5.229473114E-3,4.398174286E-1,-1.468203545E0
7.386725919E0,1.497871876E-1,4.654924870E-1,-5.536012650E-1
7.396778919E0,3.384630084E-1,3.648047447E-1,2.731742859E-1
7.406702919E0,5.339525938E-1,1.407618523E-1,9.814529419E-1
7.416662919E0,5.824925303E-1,1.786231995E-3,1.589530945E0
7.426693919E0,4.902629554E-1,-5.539488792E-2,1.977601051E0
7.436658919E0,3.017157912E-1,-7.347297668E-2,2.311388016E0
7.446739919E0,8.769351244E-2,-5.946803093E-2,2.555140495E0
7.457910919E0,-4.811012745E-2,-2.950119972E-2,2.738287926E0
7.466691919E0,-4.332172871E-2,-4.506373405E-2,2.847224236E0
7.476671919E0,-2.802014351E-3,-1.373577118E-2,2.888918877E0
7.487758919E0,7.573121786E-2,7.134103775E-2,2.890855789E0
7.496651919E0,1.906529069E-1,1.371815205E-1,2.700516701E0
7.506973919E0,2.895788848E-1,1.741178036E-1,2.353841782E0
7.516792919E0,4.064199924E-1,1.488025188E-1,1.880655289E0
7.526657919E0,4.444929659E-1,1.348257065E-1,1.283111572E0
7.537333919E0,3.858669400E-1,1.468172073E-1,8.380403519E-1
7.546667919E0,1.862134337E-1,1.879351139E-1,7.691631317E-1
7.556695919E0,4.234844446E-2,1.612179279E-1,1.059349060E0
7.566854919E0,1.072723567E-1,-8.785939217E-2,1.395936966E0
7.576923919E0,1.496438086E-1,-3.229265213E-1,1.833858490E0
7.586735919E0,1.900835931E-1,-4.921206236E-1,2.414200783E0
7.596678919E0,1.944533437E-1,-7.540525198E-1,2.888402939E0
7.606692919E0,5.369073153E-2,-1.238046408E0,3.506181717E0
7.616679919E0,-4.920177162E-2,-1.404914379E0,3.392225266E0
7.627406919E0,-1.051558554E-1,-1.504308701E0,2.903116226E0
7.636773919E0,-1.348993331E-1,-1.524941444E0,2.261205673E0
7.646687919E0,-1.673395634E-1,-1.449320555E0,1.636871338E0
7.656706919E0,-5.028064549E-2,-1.369379640E0,1.102368355E0
7.666966919E0,2.110117525E-1,-1.331277966E0,6.071310043E-1
7.677582919E0,5.208990574E-1,-1.283104181E0,2.244825363E-1
7.686675919E0,8.449020386E-1,-1.237148643E0,-2.627086639E-2
7.696718919E0,1.142934918E0,-1.252560854E0,-1.328382492E-1
7.706716919E0,1.258293629E0,-1.231912255E0,-6.087398529E-2
7.716715919E0,1.268474698E0,-1.198722005E0,-6.231975555E-2
7.726887919E0,1.195406914E0,-1.184414983E0,-4.581642151E-2
7.736923919E0,9.690234661E-1,-1.124399662E0,-1.663236618E-1
7.746827919E0,6.565591097E-1,-1.021567941E0,-2.248735428E-1
7.756750919E0,3.041037321E-1,-9.283771515E-1,-3.472948074E-1
7.767063919E0,-3.182422370E-2,-8.221673369E-1,-4.426507950E-1
7.776726919E0,-3.298816383E-1,-6.742478013E-1,-5.213365555E-1
7.786854919E0,-5.021189451E-1,-5.587418079E-1,-5.899906158E-1
7.797362919E0,-5.253474712E-1,-4.611678720E-1,-6.296548843E-1
7.806664919E0,-4.520340860E-1,-3.480141163E-1,-6.535139084E-1
7.816871919E0,-3.456515670E-1,-2.102762461E-1,-6.892375946E-1
7.830056919E0,-2.566491663E-1,-1.107764244E-1,-7.967748642E-1
7.846675919E0,-9.945011884E-2,-5.822420120E-3,-1.118462563E0
7.857548919E0,-9.811814129E-2,3.532862663E-2,-1.426209450E0
7.867019919E0,-1.486853510E-1,5.852401257E-2,-1.767830372E0
7.877486919E0,-2.092876285E-1,1.310359240E-1,-1.907745838E0
7.886680919E0,-2.384793758E-1,1.865645647E-1,-2.117067337E0
7.896684919E0,-2.494550049E-1,2.179893255E-1,-2.261950970E0
7.906707919E0,-2.193161845E-1,2.468789816E-1,-2.374351501E0
7.916742919E0,-1.947699487E-1,3.012731075E-1,-2.505119801E0
7.926686919E0,-1.144727618E-1,3.169244528E-1,-2.562362194E0
7.936687919E0,2.077221870E-4,3.174765110E-1,-2.555829048E0
7.947435919E0,1.106817722E-1,2.813698053E-1,-2.558024406E0
7.956675919E0,1.717339158E-1,3.172827959E-1,-2.598726273E0
7.966668919E0,1.760032624E-1,3.543301821E-1,-2.680231571E0
7.976711919E0,1.139861643E-1,3.957960606E-1,-2.688199520E0
7.986954919E0,4.660838097E-2,4.409136772E-1,-2.627871037E0
7.996667919E0,-1.479826868E-2,5.288022757E-1,-2.476896763E0
8.006680919E0,9.430021048E-3,6.414145231E-1,-2.259211540E0
8.016716919E0,1.091550142E-1,6.275537014E-1,-1.823822498E0
8.026821919E0,2.033493966E-1,6.210119724E-1,-1.483448982E0
8.036669919E0,2.624523044E-1,6.889185905E-1,-1.290184975E0
8.046822919E0,3.577755392E-1,6.779962778E-1,-1.058460236E0
8.056686919E0,4.177272618E-1,5.856502056E-1,-8.408288956E-1
8.066693919E0,3.658787012E-1,5.779063702E-1,-5.712804794E-1
8.076671919E0,2.289691269E-1,5.705350637E-1,-3.421039581E-1
8.086972919E0,7.088474929E-2,4.994281530E-1,-6.134033203E-3
8.096794919E0,-1.539692581E-1,4.478697777E-1,4.188117981E-1
8.106683919E0,-4.404549003E-1,4.555590153E-1,9.812536240E-1
8.116677919E0,-6.216747165E-1,5.118114948E-1,1.643224716E0
8.126688919E0,-5.924060941E-1,5.795376301E-1,2.171331406E0
8.137348919E0,-4.613181949E-1,6.339415312E-1,2.677896500E0
8.146987919E0,-1.627884060E-1,9.123942852E-1,2.731079102E0
8.158207919E0,1.147198007E-1,1.081832170E0,2.580905914E0
8.166833919E0,4.391735196E-1,1.028439283E0,2.453988075E0
8.176662919E0,5.816285014E-1,1.044001579E0,2.325898170E0
8.187922919E0,5.403035879E-1,1.068653226E0,2.047314644E0
8.196730919E0,4.516994953E-1,1.054123998E0,1.896287918E0
8.206702919E0,3.256325424E-1,9.857304096E-1,2.015379906E0
8.216722919E0,2.305783927E-1,1.035349846E0,1.807428360E0
8.226706919E0,1.921420991E-1,9.313699007E-1,1.715375900E0
8.236725919E0,3.359007239E-1,1.809805632E-1,3.559557915E0
8.246656919E0,-6.551736593E-2,-6.036448479E-2,5.023234367E0
8.256917919E0,-5.433717966E-1,-1.215438843E-1,4.925878525E0
8.266658919E0,-6.969427466E-1,-5.082360506E-1,4.739384651E0
8.276855919E0,-9.566051960E-1,-8.043538332E-1,4.465874672E0
8.286655919E0,-1.313087583E0,-9.106243849E-1,3.948288918E0
8.296698919E0,-1.536401749E0,-9.686323404E-1,3.225923538E0
8.307648919E0,-1.574038863E0,-1.055697560E0,2.317913055E0
8.316652919E0,-1.487153769E0,-1.104447603E0,1.370689392E0
8.326663919E0,-1.456544518E0,-1.034220099E0,5.200405121E-1
8.336918919E0,-1.424152255E0,-8.925375938E-1,-1.107749939E-1
8.346653919E0,-1.286316156E0,-8.150449991E-1,-5.474843979E-1
8.357188919E0,-1.068372965E0,-7.879238725E-1,-8.446388245E-1
8.366664919E0,-8.053219914E-1,-7.813155651E-1,-1.046381950E0
8.376821919E0,-5.724927187E-1,-7.804957032E-1,-1.220044136E0
8.386679919E0,-3.939310312E-1,-7.807272077E-1,-1.347864151E0
8.396655919E0,-3.290668726E-1,-7.749463916E-1,-1.457024574E0
8.407940919E0,-4.104678035E-1,-7.937099338E-1,-1.394927979E0
8.416787919E0,-6.177482605E-1,-8.140804172E-1,-1.276634216E0
8.426715919E0,-8.286015987E-1,-8.463774920E-1,-1.103507042E0
8.436666919E0,-1.074524879E0,-8.649289012E-1,-9.336614609E-1
8.446687919E0,-1.346811414E0,-8.433941007E-1,-7.180070877E-1
8.456930919E0,-1.535689831E0,-7.694832683E-1,-4.450836182E-1
8.466663919E0,-1.593678713E0,-6.934541464E-1,-3.573951721E-1
8.477028919E0,-1.533404827E0,-6.202793121E-1,-4.180784225E-1
8.486725919E0,-1.397476435E0,-5.759888887E-1,-5.842504501E-1
8.496811919E0,-1.208224893E0,-4.982838035E-1,-8.444375992E-1
8.506824919E0,-1.020238042E0,-4.204281569E-1,-1.175048828E0
8.516848919E0,-8.388315439E-1,-3.526983261E-1,-1.607275009E0
8.527590919E0,-6.601450443E-1,-2.959551811E-1,-2.051576138E0
8.536708919E0,-5.390911698E-1,-2.533175945E-1,-2.456305504E0
8.546713919E0,-4.459086657E-1,-2.236496210E-1,-2.741430759E0
8.556746919E0,-3.544355035E-1,-1.927763224E-1,-2.975152969E0
8.566741919E0,-3.190658092E-1,-1.166847944E-1,-3.048078537E0
8.578152919E0,-2.872083187E-1,-4.242980480E-2,-2.894620419E0
8.587783919E0,-2.848141193E-1,-5.313158035E-4,-2.663579941E0
8.596703919E0,-2.329259515E-1,6.363511086E-3,-2.480621815E0
8.607049919E0,-2.916673422E-1,3.269100189E-2,-2.303186417E0
8.616712919E0,-3.262909055E-1,3.939342499E-2,-2.179054737E0
8.626835919E0,-3.118684292E-1,3.165292740E-2,-2.077358246E0
8.637468919E0,-3.063603044E-1,8.418273926E-2,-2.034524441E0
8.646656919E0,-2.256598473E-1,1.320320368E-1,-2.011916161E0
8.656689919E0,-8.794039488E-2,1.543307304E-1,-1.963623047E0
8.666663919E0,3.891724348E-2,2.081128359E-1,-1.957568169E0
8.676595919E0,1.950258017E-1,2.586228848E-1,-1.797028065E0
8.686661919E0,5.438874960E-1,3.689814806E-1,-1.545490265E0
8.696934919E0,5.804102421E-1,4.554656744E-1,-1.285918236E0
8.706850919E0,5.617060065E-1,5.121678114E-1,-9.479646683E-1
8.717867919E0,4.720086455E-1,4.889431000E-1,-5.865478516E-1
8.726657919E0,2.658419609E-1,4.752349854E-1,-3.679943085E-1
8.737871919E0,8.023917675E-3,4.609155655E-1,-8.723354340E-2
8.746816919E0,-3.217067122E-1,4.668149948E-1,1.411952972E-1
8.756678919E0,-5.758029819E-1,5.103026628E-1,4.007167816E-1
8.766653919E0,-7.281749249E-1,5.589340925E-1,6.685447693E-1
8.776601919E0,-7.892807126E-1,6.368123293E-1,9.734582901E-1
8.786857919E0,-7.313835621E-1,7.141908407E-1,1.280347824E0
8.796839919E0,-4.606896639E-1,5.859112740E-1,1.673048973E0
8.806666919E0,-2.413191199E-1,5.817927122E-1,2.044931412E0
8.817826919E0,-7.619547844E-2,6.387531757E-1,2.323545456E0
8.826722919E0,2.190315723E-2,6.831085682E-1,2.470416069E0
8.836709919E0,7.457542419E-2,7.393726110E-1,2.495554924E0
8.846747919E0,1.728171110E-2,8.223792315E-1,2.363086700E0
8.856651919E0,-1.894414425E-3,8.235259056E-1,2.154635429E0
8.866643919E0,-5.048394203E-3,7.652330399E-1,1.934924126E0
8.876748919E0,1.105414033E-1,7.108150721E-1,1.844269753E0
8.887778919E0,3.306693137E-1,6.172517538E-1,2.024153709E0
8.896661919E0,6.552403569E-1,4.849460125E-1,2.456937790E0
8.906893919E0,1.019509792E0,3.075504303E-1,3.105694771E0
8.917028919E0,1.291221261E0,5.611002445E-2,3.689011574E0
8.926844919E0,1.249270678E0,-1.400392056E-1,4.292672157E0
8.936756919E0,9.777500629E-1,-3.601878881E-1,4.847113609E0
8.946836919E0,5.223251581E-1,-5.838298202E-1,5.263255119E0
8.956845919E0,-3.551939130E-2,-7.662259340E-1,5.355833054E0
8.966686919E0,-5.879618526E-1,-8.901402354E-1,5.119497299E0
8.976825919E0,-9.677695036E-1,-9.747057557E-1,4.588697433E0
8.988122919E0,-1.173422575E0,-9.804432988E-1,3.885708809E0
8.996653919E0,-1.171332479E0,-9.405109882E-1,3.077186584E0
9.006690919E0,-9.603366852E-1,-8.705769777E-1,2.303814888E0
9.016753919E0,-5.605877638E-1,-7.765286565E-1,1.560689926E0
9.026745919E0,-7.656781375E-2,-7.257510424E-1,9.624891281E-1
9.036640919E0,4.017611742E-1,-6.837292910E-1,4.404602051E-1
9.046649919E0,7.938563824E-1,-6.648982763E-1,1.577281952E-2
9.056661919E0,1.005790353E0,-6.081563234E-1,-2.578725815E-1
9.066666919E0,1.108220577E0,-5.658335686E-1,-4.299030304E-1
9.076726919E0,1.116961002E0,-5.529187918E-1,-5.795183182E-1
9.086667919E0,1.029438496E0,-5.113062859E-1,-7.620124817E-1
9.096634919E0,8.405932784E-1,-4.434238672E-1,-9.391078949E-1
9.106706919E0,5.877045393E-1,-2.833212614E-1,-1.096337318E0
9.116666919E0,3.681599796E-1,-1.266490817E-1,-1.155776978E0
9.126665919E0,2.194920182E-1,-1.724910736E-2,-1.214037895E0
9.136823919E0,1.269360483E-1,6.259632111E-2,-1.370174408E0
9.146927919E0,6.963530183E-2,1.807787418E-1,-1.695690155E0
9.156708919E0,9.970767796E-2,2.586406469E-1,-1.984580517E0
9.166624919E0,1.619679183E-1,3.372529745E-1,-2.143333912E0
9.177322919E0,1.579129100E-1,3.713555336E-1,-2.734440804E0
9.187061919E0,9.039112180E-2,4.179906845E-1,-2.728592873E0
9.197698919E0,-7.394754887E-2,4.144238234E-1,-3.292268276E0
9.206654919E0,-5.687969923E-2,3.536101580E-1,-3.283981800E0
9.216897919E0,-2.060691118E-1,3.810120821E-1,-3.707322121E0
9.226686919E0,-1.520439386E-1,3.306549788E-1,-3.831681252E0
9.236794919E0,-5.069193244E-2,2.711517811E-1,-3.855257511E0
9.246892919E0,1.752766967E-2,3.028531075E-1,-3.751700878E0
9.256677919E0,8.805778623E-2,3.382956982E-1,-3.387525558E0
9.266643919E0,1.397429407E-1,2.953946590E-1,-3.270809174E0
9.276753919E0,1.265477389E-1,2.990143299E-1,-3.286533356E0
9.288053919E0,1.277705580E-1,2.521672249E-1,-3.206166267E0
9.296841919E0,1.024028361E-1,2.764807940E-1,-2.913697243E0
9.306694919E0,8.847403526E-2,2.926579714E-1,-2.822034359E0
9.316602919E0,6.587266922E-2,3.283087015E-1,-2.988534927E0
9.326637919E0,4.677191377E-2,3.145060539E-1,-3.199506283E0
9.336596919E0,-4.531651735E-3,3.983231783E-1,-2.826436996E0
9.346677919E0,-1.225402951E-2,3.181134462E-1,-2.171808720E0
9.364241919E0,-1.086748242E-1,3.759241104E-1,-2.156624317E0
9.376707919E0,-1.096423268E-1,2.066541910E-1,-1.824751854E0
9.386841919E0,-1.787104905E-1,1.259166002E-1,-1.247463226E0
9.396843919E0,-2.393954098E-1,1.242293119E-1,-6.709375381E-1
9.406873919E0,-3.030937314E-1,1.039842367E-1,-1.428451538E-1
9.418303919E0,-3.775645196E-1,7.519114017E-2,3.076562881E-1
9.427174919E0,-5.058212280E-1,1.149617434E-1,6.546077728E-1
9.438832919E0,-6.973381042E-1,2.021409273E-1,9.637746811E-1
9.446971919E0,-8.021444082E-1,4.393700361E-1,1.378080368E0
9.456699919E0,-6.411798000E-1,6.348803043E-1,1.947719574E0
9.466934919E0,-4.611121416E-1,7.894109488E-1,2.436433792E0
9.476666919E0,-3.304912150E-1,9.908137321E-1,2.813269615E0
9.486693919E0,-1.826294959E-1,1.051391721E0,3.049233437E0
9.496647919E0,-2.628234029E-2,1.111789942E0,3.150713921E0
9.506647919E0,1.965623349E-1,1.202455401E0,2.999232292E0
9.516811919E0,2.726599574E-1,1.433340073E0,2.259611130E0
9.526896919E0,4.224522710E-1,1.397003293E0,1.678351402E0
9.537707919E0,4.735869467E-1,1.014884949E0,2.948111534E0
9.546664919E0,2.835396528E-1,1.007246494E0,3.549427986E0
9.556736919E0,2.866837680E-1,1.206045985E0,2.321672440E0
9.566710919E0,3.525692821E-1,8.190685511E-1,2.897201538E0
9.576832919E0,2.372710109E-1,2.507859468E-1,4.821317673E0
9.588650919E0,-2.123147249E-1,1.775105000E-1,4.986962318E0
9.596663919E0,-4.698287845E-1,-2.742217779E-1,5.732324600E0
9.606728919E0,-6.122837663E-1,-1.298940063E0,7.675218582E0
9.616723919E0,-1.270368814E0,-1.329593420E0,7.910179138E0
9.626749919E0,-1.708801866E0,-1.406566739E0,7.008261681E0
9.640119919E0,-2.014053583E0,-1.775853395E0,4.958577156E0
9.656830919E0,-2.149785995E0,-1.830086946E0,4.141983986E0
9.667282919E0,-2.156545401E0,-1.758842707E0,2.929507256E0
9.676665919E0,-2.147568703E0,-1.559116960E0,1.470390320E0
9.686992919E0,-2.019546986E0,-1.445125699E0,2.514019012E-1
9.696688919E0,-1.830603123E0,-1.390867829E0,-6.164236069E-1
9.706697919E0,-1.668178558E0,-1.290978193E0,-1.169931412E0
9.716704919E0,-1.526730776E0,-1.162417412E0,-1.456802368E0
9.727100919E0,-1.372094154E0,-1.054929972E0,-1.602793694E0
9.737891919E0,-1.245411038E0,-8.974367380E-1,-1.806961060E0
9.746686919E0,-1.240713358E0,-9.272967577E-1,-1.830307007E0
9.756743919E0,-1.436769962E0,-8.306272030E-1,-1.812928677E0
9.766662919E0,-1.581629992E0,-8.116880655E-1,-1.649767399E0
9.776848919E0,-1.672939897E0,-8.085538149E-1,-1.429877281E0
9.787752919E0,-1.706484556E0,-8.173366785E-1,-1.222323418E0
9.796915919E0,-1.719142556E0,-7.853103876E-1,-1.113693237E0
9.807111919E0,-1.729332209E0,-7.164524198E-1,-1.103629112E0
9.816783919E0,-1.735901833E0,-6.577675939E-1,-1.249969482E0
9.826897919E0,-1.698632479E0,-5.975586176E-1,-1.543266296E0
9.836672919E0,-1.641824603E0,-5.534722805E-1,-1.917830944E0
9.846666919E0,-1.569709539E0,-4.629009962E-1,-2.245666981E0
9.857482919E0,-1.402734876E0,-4.294477701E-1,-2.481594563E0
9.866872919E0,-1.238411665E0,-4.210463762E-1,-2.647407532E0
9.876968919E0,-1.077917099E0,-3.955408335E-1,-2.734562397E0
9.888517919E0,-8.963909745E-1,-3.957613707E-1,-2.726934910E0
9.896717919E0,-7.309480309E-1,-3.704758883E-1,-2.694905758E0
9.906652919E0,-5.584407449E-1,-3.606476784E-1,-2.677982807E0
9.916671919E0,-3.732212782E-1,-3.258389235E-1,-2.708877563E0
9.928132919E0,-2.169425488E-1,-3.064022064E-1,-2.819907665E0
9.936693919E0,-5.344223976E-2,-2.683262825E-1,-3.014945030E0
9.946657919E0,1.189402938E-1,-1.737552881E-1,-3.261548042E0
9.956751919E0,3.267191350E-1,-1.341511011E-1,-3.429904938E0
9.966657919E0,4.421904385E-1,-1.556205750E-2,-3.579426765E0
9.976685919E0,5.247911811E-1,1.140003204E-1,-3.650527477E0
9.987928919E0,5.626115799E-1,1.899852753E-1,-3.610274315E0
9.996646919E0,5.578231215E-1,4.102518559E-1,-3.563587666E0
1.000685092E1,5.766630769E-1,5.426979065E-1,-3.348540783E0
1.001679892E1,5.880346894E-1,6.412496567E-1,-3.021486759E0
1.002665892E1,6.160885692E-1,7.065854073E-1,-2.663228512E0
1.003665092E1,5.886578560E-1,7.835643291E-1,-2.196666718E0
1.004669492E1,5.236216187E-1,9.077694416E-1,-1.774573326E0
1.005682892E1,3.878442943E-1,9.523320198E-1,-1.467321396E0
1.006940692E1,1.984843314E-1,9.665865898E-1,-1.152225494E0
1.008685892E1,-9.384089708E-2,9.947798252E-1,-5.571470261E-1
1.009698992E1,-1.782158017E-1,9.862482548E-1,-1.463851929E-1
1.010666592E1,-2.349793315E-1,9.177632332E-1,2.862195969E-1
1.011672092E1,-3.185485303E-1,8.170263767E-1,7.693023682E-1
1.012669592E1,-5.044418573E-1,7.673664093E-1,1.480890274E0
1.013693292E1,-6.379259825E-1,6.719245911E-1,2.432905197E0
1.014759692E1,-7.576684952E-1,4.601960182E-1,3.230318069E0
1.015667392E1,-9.775928855E-1,3.409070969E-1,3.975451469E0
1.016671892E1,-1.230637550E0,3.679640293E-1,4.333797455E0
1.017672092E1,-1.353402495E0,4.511356354E-1,4.397936821E0
1.018666192E1,-1.302022934E0,6.136658192E-1,4.258855820E0
1.019665492E1,-1.043180227E0,7.742195129E-1,3.855089188E0
1.020665792E1,-5.427610278E-1,8.418009281E-1,3.216850281E0
1.021723992E1,9.866401553E-2,8.502659798E-1,2.542639732E0
1.022672792E1,6.392048001E-1,8.102598190E-1,2.030796051E0
1.023676392E1,1.017960906E0,7.124571800E-1,1.620234489E0
1.024688792E1,1.224556327E0,6.099729538E-1,1.140661240E0
1.025711692E1,1.240874887E0,4.723918438E-1,7.552661896E-1
1.026709092E1,1.053277850E0,3.482408524E-1,3.781852722E-1
1.027704592E1,3.493626118E-1,-1.953289509E-1,6.410455704E-1
1.028687492E1,-4.492134601E-2,-4.857444763E-1,9.038228989E-1
1.029679892E1,-3.406772017E-1,-8.188701868E-1,1.157482147E0
1.030672492E1,-6.500422359E-1,-1.173229814E0,1.573872566E0
1.032015592E1,-9.525417686E-1,-1.549727678E0,2.268615723E0
1.032858992E1,-1.295394659E0,-1.770802975E0,3.261707306E0
1.033699892E1,-1.441146970E0,-2.005474567E0,4.602839470E0
1.034666892E1,-1.260742784E0,-2.287517309E0,5.791408539E0
1.035744292E1,-1.011486530E0,-2.306145191E0,6.301736832E0
1.036664592E1,-7.612924576E-1,-2.342058182E0,6.179632187E0
1.037666892E1,-5.376067758E-1,-2.280408621E0,5.579320908E0
1.038667092E1,-3.352754414E-1,-2.193933249E0,4.551234245E0
1.039667992E1,-9.715525061E-2,-2.103713989E0,3.216510773E0
1.040673092E1,1.353001893E-1,-2.020429373E0,1.700562477E0
1.041698892E1,3.825051486E-1,-1.951893210E0,2.253408432E-1
1.042700892E1,6.760897040E-1,-1.964444757E0,-7.822971344E-1
1.043672792E1,9.015029073E-1,-1.967184782E0,-1.303654671E0
1.044664792E1,1.110581994E0,-1.954490066E0,-1.362128258E0
1.045666892E1,1.353241563E0,-2.042421103E0,-1.121668816E0
1.046665192E1,1.496234536E0,-2.207214594E0,-8.265819550E-1
1.047681792E1,1.476823211E0,-2.361713886E0,-4.637260437E-1
1.048672692E1,1.436222076E0,-2.510909081E0,-1.429786682E-1
1.049696592E1,1.304047346E0,-2.622080564E0,3.535461426E-2
1.050774392E1,1.024868727E0,-2.630481005E0,8.111763000E-2
1.051665292E1,7.225973010E-1,-2.532706738E0,4.318809509E-2
1.052665692E1,4.682812095E-1,-2.360279083E0,-9.424591064E-2
1.053675292E1,3.178027868E-1,-2.102233171E0,-3.136816025E-1
1.054670192E1,2.605510652E-1,-1.841751575E0,-6.291866302E-1
1.055699792E1,2.759601474E-1,-1.569242001E0,-9.816827774E-1
1.056670192E1,3.420678377E-1,-1.326295137E0,-1.386072159E0
1.057666592E1,4.286004901E-1,-1.101037264E0,-1.734075546E0
1.058669792E1,5.913284421E-1,-9.499001503E-1,-2.006477833E0
1.059779192E1,7.255793810E-1,-8.462129831E-1,-2.143540859E0
1.060666892E1,7.974470854E-1,-7.322020531E-1,-2.437577724E0
1.061666692E1,8.273745775E-1,-5.586223602E-1,-2.765583515E0
1.062665392E1,7.631708384E-1,-4.706070423E-1,-3.100894928E0
1.063674892E1,6.884319186E-1,-3.959469795E-1,-3.468321800E0
1.064742992E1,5.678499341E-1,-3.388695717E-1,-3.708791733E0
1.065669992E1,4.137976766E-1,-2.683734894E-1,-3.837581635E0
1.066669692E1,2.281478196E-1,-1.857211590E-1,-3.839835167E0
1.067806092E1,-8.871555328E-3,-1.178891659E-1,-3.575598717E0
1.068669092E1,-2.107059062E-1,-8.193159103E-2,-3.129086494E0
1.069668292E1,-3.480402827E-1,-8.290553093E-2,-2.741759777E0
1.070668992E1,-3.791317344E-1,-6.087636948E-2,-2.419428825E0
1.072154592E1,-3.037028015E-1,-3.784275055E-2,-2.141798496E0
1.073822692E1,-2.391369641E-1,-4.090976715E-2,-1.990324974E0
1.074670092E1,-2.512668967E-1,1.207232475E-2,-2.371378422E0
1.075692792E1,-2.370975316E-1,-1.609468460E-2,-2.583950996E0
1.076670492E1,-3.115843832E-1,4.790973663E-2,-2.586647511E0
1.077675192E1,-4.188982546E-1,1.371886730E-1,-2.586639404E0
1.078668392E1,-4.507718682E-1,1.676695347E-1,-2.179195881E0
1.079672492E1,-5.352934003E-1,1.106071472E-1,-1.100489616E0
1.080669992E1,-7.026087642E-1,2.337756157E-1,-9.380960464E-1
1.081696292E1,-7.275853157E-1,2.323629856E-1,-1.166744232E0
1.082667792E1,-7.982745767E-1,2.868599892E-1,-7.667026520E-1
1.083670492E1,-7.953290939E-1,3.519330025E-1,-3.968954086E-1
1.084683892E1,-8.173248172E-1,4.457278252E-1,2.792358398E-3
1.085665492E1,-7.786457539E-1,4.887874126E-1,7.703657150E-1
1.086674192E1,-8.214195967E-1,6.515297890E-1,1.488377571E0
1.087666192E1,-8.348430991E-1,9.403882027E-1,1.857972145E0
1.088703592E1,-7.497900128E-1,1.130908251E0,2.267579079E0
1.089666992E1,-5.869588256E-1,1.184907198E0,2.888434410E0
1.090665892E1,-5.719950795E-1,1.339757919E0,3.531338692E0
1.091667292E1,-6.262559295E-1,1.497956514E0,4.118108749E0
1.092687692E1,-5.312057734E-1,1.421231985E0,4.095722198E0
1.093722092E1,-4.657394886E-1,1.381708145E0,3.778633118E0
1.094667992E1,-3.726803660E-1,1.249524832E0,3.502434731E0
1.095677292E1,-2.940686941E-1,1.240556240E0,2.872296333E0
1.096758492E1,-1.086958051E-1,1.108259916E0,2.919027328E0
1.097665692E1,-7.038861513E-2,6.988513470E-1,4.330410004E0
1.098666492E1,-2.250786424E-1,7.191064358E-1,4.933161736E0
1.099664992E1,-1.443237662E-1,6.624473333E-1,4.510366440E0
1.100687692E1,3.449791670E-2,-1.185321808E-2,5.674280167E0
1.101667192E1,-2.846154571E-1,-3.019331694E-1,6.513714790E0
1.102683992E1,-7.438863516E-1,-4.411774874E-1,6.666613579E0
1.103682992E1,-8.775724769E-1,-8.820263147E-1,6.596263885E0
1.104667492E1,-1.089500666E0,-1.203900576E0,6.196288109E0
1.105668792E1,-1.483922243E0,-1.097286701E0,5.384425163E0
1.106723792E1,-1.587228298E0,-1.131343722E0,4.133952141E0
1.107665792E1,-1.446352243E0,-1.207244396E0,2.684802055E0
1.108674692E1,-1.426246881E0,-1.101518631E0,1.212436676E0
1.109670692E1,-1.510851502E0,-9.718207717E-1,-1.029129028E-1
1.110666292E1,-1.544344664E0,-9.254878759E-1,-1.108591080E0
1.111672592E1,-1.566602468E0,-8.853554726E-1,-1.889276505E0
1.112672092E1,-1.747493505E0,-5.626789331E-1,-2.306793213E0
1.113897092E1,-1.347323298E0,-1.084688067E0,-2.519798756E0
1.115690092E1,-1.414474726E0,-1.105104208E0,-2.420978546E0
1.116667292E1,-1.616798162E0,-9.549193382E-1,-2.368957520E0
1.117682992E1,-1.763154626E0,-8.914927244E-1,-2.268540859E0
1.118799992E1,-1.369154930E0,-1.431996942E0,-2.341863155E0
1.119666192E1,-1.389453173E0,-1.432012916E0,-2.180537701E0
1.120690492E1,-1.642091155E0,-1.320491076E0,-2.192879200E0
1.121691092E1,-1.859803081E0,-1.339926004E0,-2.218321323E0
1.122667392E1,-1.967257738E0,-1.345407486E0,-2.292916775E0
1.123666192E1,-1.980246425E0,-1.369667649E0,-2.402287006E0
1.124732492E1,-1.985419035E0,-1.412719011E0,-2.510735035E0
1.125680492E1,-1.988018632E0,-1.373191833E0,-2.624280930E0
1.126665592E1,-1.924237370E0,-1.325117826E0,-2.694373131E0
1.127664492E1,-1.759531379E0,-1.317612886E0,-2.866578102E0
1.128781592E1,-1.516811132E0,-1.282475352E0,-3.029620647E0
1.129725692E1,-1.247425437E0,-1.153632879E0,-2.987999439E0
1.130704292E1,-8.928248882E-1,-1.153125644E0,-3.072186470E0
1.131714092E1,-6.437650919E-1,-1.191892147E0,-3.240180016E0
1.132672792E1,-6.491057873E-1,-1.093580484E0,-3.315100193E0
1.133671992E1,-7.023290396E-1,-9.787404537E-1,-3.296990395E0
1.134673292E1,-6.468755007E-1,-9.416288137E-1,-3.225473881E0
1.135696692E1,-7.899014950E-1,-5.520907640E-1,-2.849564552E0
1.136780592E1,-6.795258522E-1,-4.476985931E-1,-2.545674801E0
1.137670792E1,-4.274855852E-1,-4.136552811E-1,-2.215997696E0
1.138671692E1,-2.163250446E-1,-3.621348143E-1,-1.910280228E0
1.139666192E1,8.845448494E-3,-3.408701420E-1,-1.619999409E0
1.140688992E1,2.030006647E-1,-3.469617367E-1,-1.297874451E0
1.141672192E1,2.854869366E-1,-2.662303448E-1,-9.341878891E-1
1.142668192E1,3.274044991E-1,-2.620272636E-1,-4.113502502E-1
1.143679792E1,3.179669380E-1,-3.092534542E-1,2.378883362E-1
1.144681892E1,2.697354555E-1,-4.248689413E-1,1.028671265E0
1.145666892E1,1.501257420E-1,-4.999997616E-1,1.892283440E0
1.146674192E1,2.573776245E-2,-5.607333183E-1,2.710666656E0
1.147665092E1,-1.350127459E-1,-6.629474163E-1,3.419129372E0
1.148687792E1,-3.970720768E-1,-6.773428917E-1,3.892993927E0
1.149851292E1,-6.569775343E-1,-5.693182945E-1,4.150031090E0
1.150670492E1,-8.391152620E-1,-4.770554304E-1,4.221136093E0
1.151684592E1,-8.878034353E-1,-3.339252472E-1,4.139320374E0
1.152689792E1,-7.878663540E-1,-1.876746416E-1,3.941690445E0
1.153674892E1,-5.875589848E-1,-7.596492767E-3,3.571074486E0
1.154701892E1,-3.043197393E-1,1.322789192E-1,3.081789970E0
1.155669592E1,4.597306252E-3,2.383449078E-1,2.518634796E0
1.156707892E1,2.667942047E-1,3.108818531E-1,1.854638100E0
1.157681992E1,5.191651583E-1,4.259343147E-1,1.327791214E0
1.158667992E1,7.625667453E-1,4.946992397E-1,9.798555374E-1
1.159680792E1,1.025358677E0,4.581549168E-1,8.862018585E-1
1.160667192E1,1.206916332E0,3.647408485E-1,1.095374107E0
1.161672392E1,1.242894769E0,2.338447571E-1,1.552546501E0
1.162688692E1,1.109710217E0,-5.222463608E-2,2.057455063E0
1.163666292E1,8.670510054E-1,-4.435184002E-1,2.681623459E0
1.164680492E1,3.980628252E-1,-8.134987354E-1,3.308606148E0
1.165769892E1,-1.386618614E-1,-1.077366233E0,3.754231453E0
1.166699592E1,-6.138354540E-1,-1.264835000E0,3.878262520E0
1.167687992E1,-9.274758101E-1,-1.447991371E0,3.636447906E0
1.168672392E1,-1.067129016E0,-1.392013073E0,3.188164711E0
1.169674092E1,-9.502105713E-1,-1.327193379E0,2.641550064E0
1.170774192E1,-5.819480419E-1,-1.263075352E0,2.003735542E0
1.171668292E1,-4.857993126E-2,-1.193711877E0,1.291411400E0
1.172710092E1,4.789465070E-1,-1.116049647E0,4.569463730E-1
1.173673492E1,1.013285995E0,-1.148695588E0,-4.013576508E-1
1.174666392E1,1.447864771E0,-1.218415737E0,-1.086095810E0
1.175792792E1,1.702904344E0,-1.266083002E0,-1.577885151E0
1.176665992E1,1.873373270E0,-1.306913853E0,-1.714237690E0
1.177711392E1,1.939216137E0,-1.318621874E0,-1.590270996E0
1.178669292E1,1.785799265E0,-1.334428787E0,-1.455576897E0
1.179667092E1,1.439065933E0,-1.303117275E0,-1.242922783E0
1.180683792E1,1.057159185E0,-1.193321109E0,-1.054028511E0
1.181666092E1,6.667746305E-1,-1.128173828E0,-9.659967422E-1
1.182753692E1,3.470283747E-1,-1.081273317E0,-9.346551895E-1
1.183670292E1,1.197174191E-1,-1.011041641E0,-9.801034927E-1
1.184667092E1,-5.398499966E-2,-9.007798433E-1,-1.148673058E0
1.185680592E1,-1.294630766E-1,-7.739781141E-1,-1.423000336E0
1.186663892E1,-9.236764908E-2,-6.701023579E-1,-1.717785835E0
1.187684892E1,-9.164094925E-3,-5.255417824E-1,-2.074251652E0
1.188712692E1,1.381021738E-1,-4.321515560E-1,-2.435913563E0
1.189682792E1,4.723482132E-1,-2.987685204E-1,-2.912171841E0
1.190670892E1,5.871946216E-1,-2.537662983E-1,-3.065606117E0
1.191674792E1,6.520237923E-1,-2.345327139E-1,-3.016610146E0
1.192668292E1,6.269899607E-1,-2.333527803E-1,-2.794443607E0
1.193681592E1,5.672000051E-1,-2.555128336E-1,-2.556231976E0
1.194689292E1,4.713492990E-1,-2.826272249E-1,-2.293200016E0
1.195682392E1,3.551102281E-1,-2.242978811E-1,-2.112832546E0
1.196802892E1,3.103885651E-1,-1.459219456E-1,-1.949365616E0
1.197678192E1,3.750317693E-1,-1.279649734E-1,-1.748252869E0
1.198670192E1,4.703367949E-1,-1.075923443E-1,-1.623593807E0
1.199672292E1,6.177652478E-1,-5.999517441E-2,-1.559565067E0
1.200667392E1,7.413617969E-1,-1.822948456E-2,-1.546585083E0
1.201828892E1,8.458751440E-1,5.114030838E-2,-1.485376835E0
1.202669092E1,9.167588949E-1,1.300115585E-1,-1.362159729E0
1.203665392E1,9.749557376E-1,1.942768097E-1,-1.264176369E0
1.204668592E1,1.040460467E0,2.097618580E-1,-1.160490036E0
1.205665292E1,1.060960412E0,2.061035633E-1,-1.044981003E0
1.206664892E1,1.008555651E0,2.042288780E-1,-8.807744980E-1
1.207671292E1,8.761705160E-1,2.165479660E-1,-6.657495499E-1
1.208668992E1,7.264176607E-1,2.351720333E-1,-3.703527451E-1
1.209666492E1,5.665295720E-1,3.139317036E-1,4.138565063E-2
1.210692492E1,3.823254108E-1,3.496403694E-1,5.437278748E-1
1.211664992E1,2.023236156E-1,4.453437328E-1,1.040608406E0
1.212684092E1,-1.683628559E-2,5.958578587E-1,1.388049126E0
1.213666392E1,-1.481701136E-1,7.099437714E-1,1.603029251E0
1.214670292E1,-2.567037344E-1,8.692023754E-1,1.717602730E0
1.215691692E1,-3.281073570E-1,1.106688738E0,1.800665855E0
1.216664892E1,-3.085886240E-1,1.233480692E0,1.838470459E0
1.217669792E1,-2.286490202E-1,1.313422203E0,1.929858208E0
1.218965492E1,-1.757973433E-1,1.405727386E0,1.942552567E0
1.220667092E1,-2.932648659E-1,1.551008463E0,1.878368378E0
1.221687692E1,-5.624469519E-1,1.522622585E0,1.764736176E0
1.222701292E1,-8.432397842E-1,1.506087065E0,1.582655907E0
1.223670192E1,-1.000618815E0,1.396468401E0,1.230457306E0
1.224666192E1,-1.175924540E0,1.465793848E0,6.614093781E-1
1.225671092E1,-1.324357510E0,1.082634449E0,1.910047531E0
1.226665692E1,-1.765337944E0,1.152353764E0,2.301457405E0
1.227678692E1,-1.987969995E0,1.071848869E0,1.571836472E0
1.228684092E1,-1.822772145E0,4.139590263E-2,2.914185524E0
1.229775092E1,-2.112886429E0,-4.097621441E-1,3.358194351E0
1.230689292E1,-2.445801735E0,-6.140170097E-1,3.029210091E0
1.231691692E1,-2.521252632E0,-1.091934323E0,3.406023979E0
1.232669592E1,-2.724337578E0,-1.401149273E0,3.967660904E0
1.233672392E1,-2.967694283E0,-1.446067691E0,3.831970215E0
1.234681892E1,-3.017168999E0,-1.499890089E0,3.466901779E0
1.235690592E1,-2.983314037E0,-1.524148226E0,3.009104729E0
1.236691292E1,-2.959096432E0,-1.427206039E0,2.395681381E0
1.237678092E1,-2.902403831E0,-1.314568400E0,1.688881874E0
1.238669192E1,-2.739203691E0,-1.191540956E0,1.050527573E0
1.239669792E1,-2.486564875E0,-1.087277651E0,4.566822052E-1
1.240740892E1,-1.771953940E0,-9.040726423E-1,-4.904155731E-1
1.241671092E1,-1.790642142E0,-9.537078142E-1,-4.825754166E-1
1.242666492E1,-1.376935840E0,-8.846578598E-1,-7.665729523E-1
1.243704092E1,-7.846379280E-1,-6.854927540E-1,-1.164011955E0
1.244669092E1,-6.692613363E-1,-6.508448124E-1,-1.250152588E0
1.245667792E1,-7.312794924E-1,-6.287678480E-1,-1.253019333E0
1.246728392E1,-8.837875128E-1,-6.049429178E-1,-1.236479759E0
1.247713892E1,-1.039153695E0,-5.843793154E-1,-1.280229568E0
1.248665792E1,-1.167793036E0,-5.700231791E-1,-1.354749680E0
1.249676192E1,-1.223702908E0,-5.324629545E-1,-1.462862968E0
1.250665992E1,-1.247681260E0,-4.975327253E-1,-1.617983818E0
1.251669192E1,-1.203182340E0,-5.220057964E-1,-1.750787258E0
1.252668892E1,-1.143172264E0,-5.386648178E-1,-1.914256096E0
1.253672792E1,-1.112861037E0,-5.000088215E-1,-2.014918804E0
1.254665092E1,-1.076549411E0,-4.923337698E-1,-2.157577991E0
1.255668992E1,-1.000533223E0,-5.264481306E-1,-2.334394455E0
1.256665692E1,-9.376927614E-1,-5.270568132E-1,-2.483706474E0
1.257665292E1,-8.187501431E-1,-5.002911091E-1,-2.535652637E0
1.258665492E1,-6.805386543E-1,-5.065635443E-1,-2.632731915E0
1.259709992E1,-5.553750992E-1,-4.504173994E-1,-2.672325134E0
1.260684192E1,-3.966457844E-1,-4.036133289E-1,-2.727678776E0
1.261666792E1,-2.096560001E-1,-3.933820724E-1,-2.798140526E0
1.262669692E1,-9.269976616E-2,-3.993247747E-1,-2.941943169E0
1.263667692E1,-2.291846275E-2,-4.097706079E-1,-3.115420341E0
1.264757792E1,-6.507313251E-2,-3.259317875E-1,-3.307680607E0
1.265669392E1,-1.538110971E-1,-1.866194010E-1,-3.466879845E0
1.266670192E1,-1.986675262E-1,-8.984875679E-2,-3.548536301E0
1.267704692E1,-1.933562756E-1,-2.847957611E-2,-3.501946449E0
1.268667692E1,-1.327883005E-1,7.413673401E-2,-3.404764175E0
1.269693292E1,-7.231938839E-2,2.391445637E-1,-3.138668537E0
1.270667392E1,1.869189739E-2,3.949685097E-1,-2.694212437E0
1.271675592E1,1.304380894E-1,4.682853222E-1,-2.171609879E0
1.272672192E1,2.227826118E-1,5.555748940E-1,-1.501533031E0
1.273669792E1,3.231167793E-1,6.162045002E-1,-9.183111191E-1
1.274791892E1,4.911623001E-1,6.152312756E-1,-3.281545639E-1
1.275709392E1,5.166862607E-1,6.460864544E-1,2.695045471E-1
1.276674692E1,4.601280093E-1,6.583552361E-1,8.807315826E-1
1.277668592E1,2.940585613E-1,6.449556351E-1,1.422760963E0
1.278673592E1,4.784488678E-2,6.385207176E-1,1.806915283E0
1.279665992E1,-2.368546724E-1,6.846952438E-1,2.131444931E0
1.280685792E1,-5.084319115E-1,6.640501022E-1,2.337976456E0
1.281730092E1,-7.588034868E-1,6.699042320E-1,2.505369186E0
1.282668292E1,-9.777050018E-1,7.536468506E-1,2.665595055E0
1.283680592E1,-1.113158584E0,8.313925266E-1,2.820448875E0
1.284674292E1,-1.071473479E0,8.064355850E-1,2.973318100E0
1.285669792E1,-9.722992182E-1,7.595204115E-1,3.100578308E0
1.286697892E1,-9.001251459E-1,7.642980814E-1,3.212289810E0
1.287728292E1,-8.871885538E-1,7.006020546E-1,3.291525841E0
1.288671092E1,-8.758547306E-1,6.325279474E-1,3.303270340E0
1.289751392E1,-8.233047724E-1,6.353982687E-1,3.308566093E0
1.290686392E1,-7.499469519E-1,5.592930317E-1,3.089293480E0
1.291689192E1,-7.738434076E-1,5.523568392E-1,2.763030052E0
1.292682392E1,-8.992278576E-1,6.707749367E-1,2.402733803E0
1.293672492E1,-8.147726059E-1,6.918160915E-1,2.223574638E0
1.294673392E1,-5.270150900E-1,5.939793587E-1,2.297345161E0
1.295668192E1,-3.080712557E-1,5.314276218E-1,2.494842529E0
1.296662192E1,-2.149320841E-1,4.167482853E-1,2.951534271E0
1.297683892E1,-3.983569145E-2,-1.328319311E-1,3.834681511E0
1.298666092E1,-1.146174669E-1,-3.755123615E-1,4.231759071E0
1.299669592E1,-2.769759893E-1,-5.767352581E-1,4.265267372E0
1.300673692E1,-4.693408608E-1,-6.941320896E-1,4.000596046E0
1.301665992E1,-6.121829152E-1,-7.934101820E-1,3.435759544E0
1.302687992E1,-6.009729505E-1,-8.530429602E-1,2.729290009E0
1.303663492E1,-3.795927167E-1,-8.823844194E-1,2.029218674E0
1.304680892E1,-5.415827036E-2,-8.747159243E-1,1.327393532E0
1.305689392E1,3.368103802E-1,-8.560646176E-1,6.683120728E-1
1.306664592E1,6.919601560E-1,-8.539314270E-1,1.163539886E-1
1.307675292E1,1.004820824E0,-8.699227571E-1,-3.946380615E-1
1.308668392E1,1.275504351E0,-9.366065264E-1,-8.469057083E-1
1.309666392E1,1.487065434E0,-1.003209949E0,-1.185236931E0
1.310667592E1,1.516016006E0,-1.083991766E0,-1.488506317E0
1.311664592E1,1.406933546E0,-1.110697746E0,-1.646544456E0
1.312709492E1,1.207525730E0,-1.143380404E0,-1.781323910E0
1.313752592E1,9.711678624E-1,-1.206028581E0,-1.857071400E0
1.314666492E1,7.017771602E-1,-1.198503375E0,-1.865872860E0
1.315668892E1,4.413406849E-1,-1.197266102E0,-1.827729225E0
1.316667392E1,2.607818246E-1,-1.219027400E0,-1.788831711E0
1.317671992E1,1.621610522E-1,-1.209543347E0,-1.832609653E0
1.318666092E1,1.561779380E-1,-1.164149523E0,-1.904560089E0
1.319691092E1,2.707654834E-1,-1.113443375E0,-2.021043301E0
1.320673792E1,4.418812990E-1,-1.051644206E0,-2.175101757E0
1.321675292E1,6.045434475E-1,-1.000409007E0,-2.383035183E0
1.322666992E1,6.864833832E-1,-9.227046967E-1,-2.646395683E0
1.323703992E1,6.536374092E-1,-8.645082712E-1,-2.992368221E0
1.324720092E1,5.721843243E-1,-7.968785763E-1,-3.269762993E0
1.325716692E1,4.859028161E-1,-7.528078556E-1,-3.452975750E0
1.326669892E1,3.699465394E-1,-6.689687967E-1,-3.508178234E0
1.327667792E1,2.669655085E-1,-5.711572170E-1,-3.422791958E0
1.328694792E1,2.197955847E-1,-4.797726870E-1,-3.232894421E0
1.329721292E1,2.160018086E-1,-4.266614914E-1,-2.935340881E0
1.330667592E1,2.892862558E-1,-4.002013206E-1,-2.567861557E0
1.331668692E1,3.115875125E-1,-3.567445278E-1,-2.190335751E0
1.332664692E1,2.838207483E-1,-3.030297756E-1,-1.863595963E0
1.333693692E1,2.028865218E-1,-2.283496857E-1,-1.623057365E0
1.334672592E1,1.704658270E-1,-1.655142307E-1,-1.451279640E0
1.335668192E1,1.044678092E-1,-1.005778313E-1,-1.360366821E0
1.336664492E1,8.368521929E-2,-1.951742172E-2,-1.337389946E0
1.337669892E1,9.153801203E-2,4.073643684E-2,-1.274630547E0
1.338664592E1,1.208686233E-1,1.227350235E-1,-1.224179268E0
1.339667792E1,1.555156112E-1,1.840765476E-1,-1.110138893E0
1.340683892E1,2.186976671E-1,2.202758789E-1,-9.389953613E-1
1.341667392E1,2.911017537E-1,2.319703102E-1,-7.197866440E-1
1.342665692E1,3.169333935E-1,2.280552387E-1,-4.386901855E-1
1.343663492E1,3.526864648E-1,2.565507889E-1,-2.629280090E-3
1.344671992E1,3.841474652E-1,2.998754978E-1,6.786146164E-1
1.345695592E1,3.299006820E-1,3.233273029E-1,1.312984467E0
1.346663692E1,1.814594269E-1,3.817341328E-1,1.916062355E0
1.347670492E1,-2.383708954E-2,4.614987373E-1,2.381286621E0
1.348668692E1,-2.112169266E-1,5.060267448E-1,2.732833862E0
1.349682792E1,-3.403793573E-1,5.626854897E-1,2.938644409E0
1.350685592E1,-3.717447519E-1,6.418159008E-1,2.861129761E0
1.351680292E1,-3.226972818E-1,8.998534679E-1,2.522800446E0
1.352672892E1,-2.004948854E-1,9.788091183E-1,2.192667961E0
1.353692992E1,-1.577472687E-1,1.045511246E0,1.901293755E0
1.354717792E1,-1.680375338E-1,1.040730715E0,1.549974442E0
1.355667892E1,-2.496793270E-1,9.863262177E-1,1.372081757E0
1.356673792E1,-4.453144073E-1,9.278810024E-1,1.201713562E0
1.357669892E1,-6.439896822E-1,8.240954876E-1,1.315328598E0
1.358671792E1,-8.112933636E-1,5.450353622E-1,1.812727928E0
1.359666492E1,-9.290715456E-1,2.577712536E-1,2.349444389E0
1.360665192E1,-1.161487818E0,5.254650116E-2,2.864740372E0
1.361659092E1,-1.395803928E0,-2.367117405E-1,3.467865944E0
1.362696892E1,-1.640643358E0,-5.618710518E-1,3.944384575E0
1.363721292E1,-2.016753197E0,-7.568082809E-1,4.087556839E0
1.364666892E1,-2.308362007E0,-9.316731691E-1,3.869096756E0
1.365670292E1,-2.483704329E0,-1.073215723E0,3.387154579E0
1.366665492E1,-2.507882833E0,-1.192071676E0,2.698798180E0
1.367666492E1,-2.415515184E0,-1.276974678E0,2.122237206E0
1.368714292E1,-2.313333511E0,-1.216319680E0,1.663090706E0
1.369665992E1,-2.143077135E0,-1.100881100E0,1.081134796E0
1.370686292E1,-1.810624838E0,-1.053965211E0,6.754131317E-1
1.371672392E1,-1.477842569E0,-1.082041860E0,4.366149902E-1
1.372667092E1,-1.178817511E0,-1.109690428E0,1.772489548E-1
1.373670992E1,-9.567061663E-1,-1.096922398E0,-6.731414795E-2
1.374670792E1,-8.121302128E-1,-1.092869282E0,-2.877311707E-1
1.375673392E1,-7.623414397E-1,-1.080792904E0,-4.748830795E-1
1.376665792E1,-8.365179896E-1,-1.093592882E0,-7.125148773E-1
1.377674192E1,-9.419746995E-1,-1.081016421E0,-9.595518112E-1
1.378872092E1,-1.024487019E0,-1.059269786E0,-1.165624619E0
1.380170092E1,-1.156407356E0,-9.856683016E-1,-1.391492844E0
1.381661692E1,-1.109553099E0,-9.684460163E-1,-1.394825935E0
1.382704092E1,-8.374366164E-1,-7.724205256E-1,-1.419042587E0
1.383691292E1,-8.339717388E-1,-7.392369509E-1,-1.438849449E0
1.384710192E1,-8.342641592E-1,-7.146362066E-1,-1.525876045E0
1.385858292E1,-8.048355579E-1,-7.015599012E-1,-1.775206089E0
1.386702492E1,-6.945802569E-1,-6.626050472E-1,-2.136784077E0
1.387700992E1,-5.372176766E-1,-6.756885052E-1,-2.365288734E0
1.388692292E1,-4.451643229E-1,-6.451169252E-1,-2.475838184E0
1.389677892E1,-4.629616737E-1,-4.995526075E-1,-2.625895023E0
1.390702592E1,-4.304363728E-1,-3.612728119E-1,-2.720465183E0
1.391693092E1,-3.079130650E-1,-3.137526512E-1,-2.764337540E0
1.392697492E1,-1.973379850E-1,-2.604299784E-1,-2.782969952E0
1.393674192E1,-1.348714828E-1,-1.362566948E-1,-2.826680183E0
1.394675092E1,-1.040347815E-1,3.000497818E-3,-2.787796974E0
1.395912092E1,-4.783773422E-2,1.581728458E-1,-2.575973988E0
1.397694792E1,-7.633960247E-2,1.586184502E-1,-2.473620415E0
1.398684892E1,-1.336162090E-1,1.901562214E-1,-2.390953064E0
1.399665092E1,-1.451462507E-1,3.067326546E-1,-2.220884800E0
1.400710892E1,-8.389973640E-2,3.868558407E-1,-1.960077763E0
1.401671792E1,-5.116462708E-4,4.787552357E-1,-1.738081932E0
1.402666592E1,1.309311986E-1,5.695805550E-1,-1.646362305E0
1.403681192E1,3.070589304E-1,5.927238464E-1,-1.539236069E0
1.404685492E1,4.520223737E-1,7.333974838E-1,-1.352860451E0
1.405667892E1,4.199385047E-1,7.358417511E-1,-1.000223160E0
1.406670192E1,3.965226412E-1,7.502338886E-1,-4.926719666E-1
1.407664692E1,3.904686570E-1,6.793262959E-1,-6.729984283E-2
1.408868992E1,3.678623140E-1,5.218360424E-1,3.693714142E-1
1.410667392E1,-2.204626799E-2,4.951620102E-1,6.860437393E-1
1.411712592E1,-2.595084906E-1,5.594365597E-1,7.228889465E-1
1.412669592E1,-4.381473660E-1,6.910896301E-1,7.026987076E-1
1.413671592E1,-4.986681938E-1,8.577039242E-1,6.383285522E-1
1.414717892E1,-4.490116239E-1,9.912936687E-1,6.270799637E-1
1.415666892E1,-3.092213273E-1,1.099819660E0,8.362426758E-1
1.416660792E1,-2.269407511E-1,1.196654558E0,1.144139290E0
1.417669192E1,-5.230265856E-2,1.231418133E0,1.485989571E0
1.418673392E1,1.504784822E-1,1.260624409E0,1.941576958E0
1.419689692E1,2.997697294E-1,1.277402401E0,2.288510323E0
1.420713892E1,3.637600541E-1,1.264848709E0,2.637700081E0
1.421673792E1,3.842361867E-1,1.200495005E0,2.756752968E0
1.422682892E1,3.906534910E-1,1.019664049E0,2.468050003E0
1.423679592E1,2.670995891E-1,9.072487354E-1,2.145422935E0
1.424671592E1,3.493070602E-2,9.348287582E-1,1.906890869E0
1.425674692E1,-6.966137886E-2,9.939808846E-1,1.728810310E0
1.426666592E1,1.283243895E-1,9.286696911E-1,1.698793411E0
1.427705592E1,5.103604198E-1,7.183976173E-1,1.947884560E0
1.428668692E1,9.321944714E-1,4.114918709E-1,2.497887611E0
1.429668292E1,1.170950055E0,1.754453182E-1,3.212756157E0
1.430665192E1,1.299961329E0,-3.307700157E-2,3.997889519E0
1.431664792E1,1.323054552E0,-3.120887280E-1,4.422261238E0
1.432664692E1,1.276304722E0,-6.136720181E-1,4.539508820E0
1.433712092E1,1.009910226E0,-9.067270756E-1,4.471773148E0
1.434741692E1,6.081461906E-1,-1.099462986E0,3.945076942E0
1.435681692E1,1.967200488E-1,-1.157131553E0,3.176362038E0
1.436661192E1,-1.319261491E-1,-1.098910213E0,2.294536591E0
1.437667892E1,-2.905990779E-1,-1.048815012E0,1.559065819E0
1.438692992E1,-1.896998584E-1,-1.053139925E0,9.668970108E-1
1.439664892E1,5.834193528E-2,-9.896720648E-1,4.736795425E-1
1.440671592E1,4.092704058E-1,-9.539450407E-1,2.094554901E-1
1.441671992E1,8.386329412E-1,-1.042062402E0,-8.605384827E-2
1.442670092E1,1.164603710E0,-1.168961763E0,-4.749441147E-1
1.443666292E1,1.310043216E0,-1.225234985E0,-8.019752502E-1
1.444665492E1,1.313799262E0,-1.198981285E0,-1.060863495E0
1.445706092E1,1.292266250E0,-1.153587699E0,-1.267188072E0
1.446665192E1,1.264611363E0,-1.131459594E0,-1.459252834E0
1.447711392E1,1.195903897E0,-1.083400369E0,-1.652132988E0
1.448691092E1,1.074657798E0,-1.019129753E0,-1.835203648E0
1.449680892E1,9.247404337E-1,-9.665688276E-1,-2.036087513E0
1.450666392E1,7.613222599E-1,-8.708266020E-1,-2.164142609E0
1.451661392E1,6.092676520E-1,-7.753038406E-1,-2.204440594E0
1.452724492E1,5.489659905E-1,-6.810891628E-1,-2.109134674E0
1.453692292E1,5.355832577E-1,-5.944681168E-1,-1.966912270E0
1.454685792E1,5.310103893E-1,-5.278398991E-1,-1.767798901E0
1.455734392E1,3.215281069E-1,-3.338899612E-1,-1.635313511E0
1.456661392E1,3.214703798E-1,-3.225045204E-1,-1.638584614E0
1.457667992E1,2.415058911E-1,-2.842667103E-1,-1.643364906E0
1.458664892E1,1.448076963E-1,-1.678359509E-1,-1.965478897E0
1.459678292E1,1.889645308E-1,-7.487416267E-2,-2.136539459E0
1.460706092E1,3.240744174E-1,-5.762195587E-2,-2.312592030E0
1.461666192E1,4.084260464E-1,-3.453564644E-2,-2.412919521E0
1.462691592E1,4.458274245E-1,2.405500412E-2,-2.352971554E0
1.463672692E1,4.637726843E-1,7.419991493E-2,-2.269445419E0
1.464667392E1,4.585434198E-1,8.417558670E-2,-2.198548794E0
1.465674092E1,4.967401326E-1,9.718132019E-2,-2.076656818E0
1.466666492E1,5.393832326E-1,1.102645397E-1,-1.918338299E0
1.467725092E1,6.076797843E-1,1.079134941E-1,-1.834967136E0
1.468672992E1,6.372922659E-1,1.547884941E-1,-1.755183697E0
1.469671692E1,6.104546785E-1,2.383627892E-1,-1.697901249E0
1.470665292E1,5.820768476E-1,2.865719795E-1,-1.619576454E0
1.471669292E1,5.469347835E-1,3.185608387E-1,-1.606778145E0
1.472672092E1,4.736860394E-1,3.312849998E-1,-1.578283787E0
1.473683692E1,3.756399155E-1,3.591456413E-1,-1.461362839E0
1.474734192E1,3.139928877E-1,3.637466431E-1,-1.265959740E0
1.475706392E1,2.979293466E-1,3.950607777E-1,-9.301252365E-1
1.476692792E1,3.340718150E-1,4.291696548E-1,-5.564670563E-1
1.477675192E1,4.361975789E-1,4.857358932E-1,-1.726579666E-1
1.478671492E1,5.499246120E-1,5.709147453E-1,1.613435745E-1
1.479667392E1,5.745018721E-1,6.436882019E-1,4.304866791E-1
1.480700592E1,5.116251707E-1,6.853766441E-1,7.147970200E-1
1.481659992E1,3.578234017E-1,7.827994823E-1,9.378604889E-1
1.482684992E1,1.588312536E-1,9.293272495E-1,1.118521690E0
1.483702592E1,-7.121595740E-2,8.865556717E-1,1.336455345E0
1.484674892E1,-1.206321642E-1,8.924353123E-1,1.502030373E0
1.485803792E1,-1.139011085E-1,9.190118313E-1,1.676319122E0
1.486670392E1,8.360285312E-2,9.512841702E-1,1.788862228E0
1.487714492E1,1.479363441E-1,1.036257744E0,1.873459816E0
1.488687692E1,2.203562707E-1,1.066391706E0,1.980752945E0
1.489678892E1,2.200649083E-1,9.717800617E-1,1.856746674E0
1.490670292E1,-2.232595906E-2,9.151365757E-1,1.713809967E0
1.491686692E1,-3.106462061E-1,8.421099186E-1,1.581292152E0
1.492690692E1,-4.091276228E-1,6.775550842E-1,1.583206177E0
1.493674092E1,-4.323707223E-1,4.421639442E-1,1.814291954E0
1.494668992E1,-4.837359786E-1,2.380733490E-1,2.062365532E0
1.495687992E1,-5.204762816E-1,5.976462364E-2,2.419676781E0
1.496665792E1,-4.834550023E-1,-1.419999599E-1,2.852635384E0
1.497670792E1,-4.170544744E-1,-4.151964188E-1,3.230465889E0
1.498672492E1,-4.215167165E-1,-7.013094425E-1,3.452050209E0
1.499672092E1,-5.584698915E-1,-9.925258160E-1,3.644454002E0
1.500664692E1,-8.193444014E-1,-1.232028604E0,3.647175789E0
1.501709492E1,-1.192765474E0,-1.428693652E0,3.484337807E0
1.502694892E1,-1.537141204E0,-1.592651248E0,3.003186226E0
1.503839492E1,-2.053737402E0,-1.677439451E0,1.988862038E0
1.504680992E1,-2.016015291E0,-1.663626194E0,1.984307289E0
1.505675392E1,-2.090934277E0,-1.630005717E0,1.508365631E0
1.506660692E1,-2.073280096E0,-1.490764856E0,1.075659752E0
1.507667192E1,-1.997504473E0,-1.342674851E0,7.000675201E-1
1.508703092E1,-1.833581448E0,-1.282680035E0,4.203147888E-1
1.509665592E1,-1.586344123E0,-1.245702982E0,1.984624863E-1
1.510669892E1,-1.256140590E0,-1.250001669E0,5.078220367E-2
1.511666492E1,-9.616305828E-1,-1.229152083E0,-3.989887238E-2
1.512684892E1,-6.504160762E-1,-1.098047495E0,-1.175880432E-1
1.513674292E1,-6.502106190E-1,-1.065404892E0,-2.110128403E-1
1.514683192E1,-7.882609367E-1,-1.008041382E0,-3.123455048E-1
1.515666892E1,-1.005560875E0,-9.593420029E-1,-4.165010452E-1
1.516663092E1,-1.171071649E0,-9.000327587E-1,-4.920072556E-1
1.517665492E1,-1.272888303E0,-8.624918461E-1,-5.938024521E-1
1.518687992E1,-1.329829097E0,-8.206155300E-1,-6.742582321E-1
1.519688792E1,-1.404101253E0,-7.298011780E-1,-7.545614243E-1
1.520703692E1,-1.397224188E0,-6.561527252E-1,-7.683715820E-1
1.521665892E1,-1.296895862E0,-6.258134842E-1,-8.330650330E-1
1.522673092E1,-1.114558220E0,-6.218812466E-1,-9.235830307E-1
1.523703792E1,-9.347602725E-1,-6.281080246E-1,-1.067096710E0
1.524667192E1,-6.970669031E-1,-5.303039551E-1,-1.218247414E0
1.525677692E1,-5.667021275E-1,-4.671397209E-1,-1.336691856E0
1.526662592E1,-4.919106662E-1,-4.581441879E-1,-1.490105629E0
1.527673192E1,-4.615381956E-1,-4.355378151E-1,-1.677523136E0
1.528669292E1,-4.998182654E-1,-3.832695484E-1,-1.846977711E0
1.529668292E1,-5.511331558E-1,-3.112106323E-1,-1.907762527E0
1.530688492E1,-5.489836931E-1,-2.783019543E-1,-1.939169884E0
1.531681592E1,-5.488991737E-1,-2.905123234E-1,-1.979537487E0
1.532669992E1,-5.949147940E-1,-2.629489899E-1,-2.041237831E0
1.533680992E1,-6.163292527E-1,-2.340607643E-1,-1.999739170E0
1.534670192E1,-5.850636959E-1,-2.125573158E-1,-1.914788723E0
1.535682192E1,-4.997068942E-1,-2.114992142E-1,-1.902528763E0
1.536689792E1,-4.033579230E-1,-1.740033627E-1,-1.906120300E0
1.537680192E1,-3.560803831E-1,-9.561038017E-2,-1.922993660E0
1.538685892E1,-2.915756106E-1,4.103183746E-3,-1.937783241E0
1.539669492E1,-2.076836973E-1,1.025753021E-1,-1.909858704E0
1.540667892E1,-1.222017407E-1,2.070510387E-1,-1.736601830E0
1.541684792E1,-1.438859105E-2,3.158228397E-1,-1.462209702E0
1.542682992E1,1.241870821E-1,3.843910694E-1,-1.195992470E0
1.543670592E1,1.958497614E-1,3.682832718E-1,-1.013655663E0
1.544668592E1,1.592047662E-1,3.793892860E-1,-8.906068802E-1
1.545675592E1,7.480827719E-2,3.844728470E-1,-8.193149567E-1
1.546669992E1,-6.756269932E-2,4.016289711E-1,-6.833238602E-1
1.547678092E1,-1.849899292E-1,4.651606083E-1,-5.211191177E-1
1.548671092E1,-3.026410341E-1,5.380349159E-1,-3.324394226E-1
1.549676092E1,-3.645337224E-1,5.834546089E-1,-1.477231979E-1
1.550671192E1,-3.533237576E-1,6.270377636E-1,6.195545197E-2
1.551665092E1,-3.294315934E-1,6.779353619E-1,3.010988235E-1
1.552686892E1,-1.817645431E-1,5.255601406E-1,6.781005859E-1
1.553669192E1,-3.614085913E-2,3.966696262E-1,1.112293243E0
1.554674692E1,6.604936719E-2,3.782389164E-1,1.632595062E0
1.555671392E1,2.535711527E-1,3.626472950E-1,2.065594673E0
1.556666692E1,4.088029265E-1,3.129181862E-1,2.354818344E0
1.557673492E1,5.106178522E-1,2.512445450E-1,2.529010773E0
1.558671892E1,4.099639356E-1,3.111073971E-1,2.494284630E0
1.559670292E1,1.574663967E-1,4.482798576E-1,2.243843079E0
1.560702892E1,-9.886588901E-2,4.961020947E-1,1.988449097E0
1.561673692E1,-3.184438944E-1,5.556247234E-1,1.841646194E0
1.562704392E1,-3.300074935E-1,6.282281876E-1,1.794281960E0
1.563675892E1,-5.878272653E-2,6.137940884E-1,1.914690971E0
1.564690792E1,4.379547834E-1,4.534347057E-1,2.380482674E0
1.565680992E1,1.509345531E0,-2.488470078E-2,3.866454124E0
1.566665892E1,2.043205976E0,-3.960194588E-1,4.802039146E0
1.567807392E1,2.337162733E0,-8.596284389E-1,5.484879494E0
1.568683992E1,2.170519352E0,-1.223710537E0,5.972126961E0
1.569687592E1,1.739899755E0,-1.515819669E0,5.982383728E0
1.570666192E1,1.149012685E0,-1.754690886E0,5.414439201E0
1.571692292E1,6.119799614E-1,-1.917433143E0,4.459149361E0
1.572768792E1,3.439049423E-1,-1.959253073E0,3.341485023E0
1.573683792E1,2.437276542E-1,-1.951867342E0,2.448703766E0
1.574671092E1,2.626153231E-1,-1.827726960E0,1.787922859E0
1.575697892E1,4.888410866E-1,-1.663966179E0,1.274454117E0
1.576687492E1,9.165429473E-1,-1.668388128E0,8.901424408E-1
1.577742392E1,1.416269660E0,-1.754340172E0,4.727210999E-1
1.578670992E1,1.807262063E0,-1.872004867E0,-2.476692200E-2
1.579677592E1,2.041343689E0,-1.949040294E0,-4.645423889E-1
1.580710192E1,2.123259068E0,-2.037037849E0,-8.194599152E-1
1.581689792E1,2.113822699E0,-2.059286118E0,-9.930257797E-1
1.582701992E1,2.080979109E0,-2.096442699E0,-1.034693718E0
1.583679592E1,1.992410660E0,-2.102488995E0,-1.032443047E0
1.584729792E1,1.877559304E0,-2.086103678E0,-1.024555206E0
1.585684292E1,1.723646402E0,-2.034698009E0,-1.059722900E0
1.586663892E1,1.513232112E0,-1.967733383E0,-1.180437088E0
1.587664492E1,1.277538061E0,-1.894695878E0,-1.262722969E0
1.588691492E1,1.081439495E0,-1.822706819E0,-1.317385674E0
1.589693592E1,9.358916879E-1,-1.731651306E0,-1.487198353E0
1.590668792E1,8.463343382E-1,-1.627085567E0,-1.857930660E0
1.591675692E1,8.389384151E-1,-1.533386350E0,-2.246259689E0
1.592775992E1,8.301426768E-1,-1.438739777E0,-2.488969803E0
1.593688792E1,8.207668066E-1,-1.269879103E0,-2.719858646E0
1.594670692E1,8.630009890E-1,-1.065074205E0,-3.016995430E0
1.595672092E1,1.031738162E0,-9.405972958E-1,-3.291236401E0
1.596666592E1,1.162197948E0,-8.148190975E-1,-3.471862316E0
1.597672792E1,1.229900837E0,-6.324458122E-1,-3.544972420E0
1.598669792E1,1.283822179E0,-4.547536373E-1,-3.466634274E0
1.599664392E1,1.354614377E0,-3.359217644E-1,-3.312211990E0
1.600690992E1,1.377321243E0,-2.613835335E-1,-3.186808109E0
1.601661492E1,1.280688763E0,-2.294909954E-1,-3.138442993E0
1.602716892E1,1.085719109E0,-2.329125404E-1,-3.088614464E0
1.604047292E1,6.429532170E-1,-1.688163280E-1,-2.922038078E0
1.605666392E1,5.534371734E-1,-1.519167423E-1,-2.706363678E0
1.606671392E1,5.385143161E-1,-6.429243088E-2,-2.420323849E0
1.607664992E1,6.426751018E-1,-5.294060707E-2,-2.080821514E0
1.608668892E1,7.258258462E-1,-4.721999168E-2,-1.766906738E0
1.609671792E1,7.816900611E-1,-9.289503098E-3,-1.279363155E0
1.610667192E1,7.813184261E-1,-4.798984528E-2,-7.689723969E-1
1.611744792E1,7.165529728E-1,-4.825568199E-2,-4.646339417E-1
1.612685892E1,5.328868032E-1,2.752971649E-2,-7.674560547E-1
1.613670792E1,3.923668861E-1,-1.391170025E-1,-4.350070953E-1
1.614705392E1,7.176715881E-2,-2.635684013E-1,4.808225632E-1
1.615665892E1,-3.954369426E-1,-2.748703957E-2,8.986139297E-1
1.616662992E1,-6.488679647E-1,9.033584595E-2,1.193202019E0
1.617677692E1,-6.770083308E-1,2.415728569E-2,1.672554970E0
1.618709492E1,-4.920166135E-1,2.626204491E-1,1.299201012E0
1.619675292E1,-2.705016732E-1,3.477561474E-1,6.924982071E-1
1.620713492E1,2.524943650E-2,4.864864349E-1,3.437681198E-1
1.621667392E1,9.265986830E-2,6.233284473E-1,2.054815292E-1
1.622672392E1,1.460243762E-1,5.731558800E-1,3.494281769E-1
1.623672992E1,4.571808875E-2,4.543373585E-1,3.682947159E-1
1.624665992E1,6.469415128E-2,4.448156357E-1,7.171621323E-1
1.625709092E1,-1.162172854E-1,5.824503899E-1,9.254007339E-1
1.626668392E1,-2.229763865E-1,5.584645271E-1,9.329900742E-1
1.627684992E1,-1.988810897E-1,4.851438999E-1,9.526700974E-1
1.628734992E1,-1.548648477E-1,4.561002254E-1,1.082369804E0
1.629668192E1,-1.114683151E-1,4.494004250E-1,1.253129005E0
1.630685092E1,7.080018520E-3,4.382257462E-1,1.498633385E0
1.631663592E1,2.686551809E-1,3.395018578E-1,1.878357887E0
1.632671692E1,6.001258492E-1,1.826205254E-1,2.422326088E0
1.633704392E1,9.453117847E-1,5.814790726E-3,3.221274376E0
1.634671892E1,1.348723173E0,-2.844946384E-1,3.890300751E0
1.635680392E1,1.606433630E0,-6.825492382E-1,4.515776634E0
1.636674492E1,1.574555755E0,-1.037808418E0,5.008844376E0
1.637669192E1,1.231515288E0,-1.230627418E0,5.419521332E0
1.638971192E1,7.399886847E-1,-1.385986209E0,5.453168869E0
1.640672592E1,-1.521070898E-1,-1.647882819E0,4.891921043E0
1.641668592E1,-3.393592238E-1,-1.504385591E0,4.437642097E0
1.642701592E1,-4.316692948E-1,-1.371529818E0,3.898239136E0
1.643667692E1,-3.254285455E-1,-1.273049474E0,3.427008629E0
1.644674392E1,-9.248435497E-2,-1.317312956E0,2.908288002E0
1.645673392E1,1.282767653E-1,-1.353555202E0,2.285772324E0
1.646666092E1,2.356898785E-1,-1.341192245E0,1.560869217E0
1.647667392E1,2.841523886E-1,-1.288714528E0,8.644962311E-1
1.648672192E1,4.152361751E-1,-1.260117054E0,1.717977524E-1
1.649723592E1,6.046626568E-1,-1.276509523E0,-4.027338028E-1
1.650666092E1,7.854386568E-1,-1.257194400E0,-7.337169647E-1
1.651670892E1,9.080806971E-1,-1.242159009E0,-8.544521332E-1
1.652673792E1,9.442670345E-1,-1.267216563E0,-8.171091080E-1
1.653670092E1,8.891476989E-1,-1.338443518E0,-7.370290756E-1
1.654665292E1,7.404081821E-1,-1.357655048E0,-6.045494080E-1
1.655681292E1,5.006482005E-1,-1.330675125E0,-5.889558792E-1
1.656721992E1,2.333060503E-1,-1.314327002E0,-6.924009323E-1
1.657694392E1,-3.676509857E-2,-1.299281120E0,-8.014936447E-1
1.658671592E1,-2.225426435E-1,-1.261564732E0,-9.878025055E-1
1.659667292E1,-4.173638821E-1,-1.245516539E0,-1.183981895E0
1.660709192E1,-5.331041813E-1,-1.170520544E0,-1.304780006E0
1.661759392E1,-5.694732666E-1,-1.102668524E0,-1.350611687E0
1.662667292E1,-4.783841372E-1,-1.069450855E0,-1.316466331E0
1.663669392E1,-3.415914774E-1,-1.041946411E0,-1.341142178E0
1.664683492E1,-2.015553713E-1,-1.013717532E0,-1.383831024E0
1.665677392E1,-9.480357170E-2,-9.723626375E-1,-1.398838520E0
1.666726392E1,-7.824182510E-3,-9.595412016E-1,-1.430949211E0
1.667681192E1,5.937552452E-2,-9.538067579E-1,-1.569159031E0
1.668671192E1,1.045135260E-1,-9.459317923E-1,-1.789398193E0
1.669672792E1,1.202344894E-1,-9.371440411E-1,-2.077108860E0
1.670669392E1,1.300901175E-1,-9.023633003E-1,-2.438024521E0
1.671662892E1,1.498258114E-1,-8.730616570E-1,-2.701887608E0
1.672666492E1,1.836961508E-1,-8.090233803E-1,-2.935909271E0
1.674015792E1,3.038072586E-1,-6.429057121E-1,-2.926532745E0
1.675703792E1,5.284179449E-1,-6.320669651E-1,-2.600097656E0
1.676681092E1,5.346008539E-1,-5.845112801E-1,-2.447856903E0
1.677671692E1,5.373299122E-1,-4.883666039E-1,-2.318739891E0
1.678673092E1,5.259767771E-1,-4.018208981E-1,-2.201407433E0
1.679667892E1,4.914207458E-1,-3.184468746E-1,-2.117479324E0
1.680666892E1,4.766581059E-1,-2.659428120E-1,-2.037846565E0
1.681662492E1,4.863256216E-1,-2.614197731E-1,-1.931524277E0
1.682706492E1,5.072586536E-1,-2.190020084E-1,-1.797097206E0
1.683675192E1,5.197007656E-1,-1.806576252E-1,-1.563690662E0
1.684683192E1,5.545742512E-1,-1.562349796E-1,-1.275235176E0
1.685721792E1,5.610653162E-1,-1.339545250E-1,-9.941987991E-1
1.686668392E1,5.539967418E-1,-1.211254597E-1,-7.290267944E-1
1.687670492E1,5.031455755E-1,-1.107413769E-1,-4.428977966E-1
1.688682792E1,3.736383915E-1,-6.454396248E-2,-6.400871277E-2
1.689670692E1,1.922875643E-1,2.282023430E-2,4.405317307E-1
1.690767192E1,4.283308983E-3,7.880449295E-2,9.331760406E-1
1.691672492E1,-1.497007608E-1,1.400060654E-1,1.392187119E0
1.692673592E1,-2.745225430E-1,1.363370419E-1,1.685452461E0
1.693671692E1,-4.310971498E-1,2.606732845E-1,1.692779541E0
1.694696592E1,-5.794787407E-1,4.159870148E-1,1.573951721E0
1.695831692E1,-6.213791370E-1,5.850358009E-1,1.431233406E0
1.696674092E1,-5.719161034E-1,7.383055687E-1,1.392528534E0
1.697669092E1,-4.844975471E-1,8.053045273E-1,1.440429688E0
1.698673892E1,-4.320337772E-1,8.781459332E-1,1.612989426E0
1.699670692E1,-4.041911364E-1,9.738655090E-1,1.841496468E0
1.700670592E1,-4.021277428E-1,1.028470993E0,2.069970131E0
1.701665192E1,-3.316973448E-1,1.010070324E0,2.286820412E0
1.702705892E1,-3.521270752E-1,9.329581261E-1,2.455045700E0
1.703670092E1,-4.492986202E-1,8.655874729E-1,2.528775215E0
1.704664892E1,-6.358727217E-1,9.233295918E-1,2.408917427E0
1.705733592E1,-7.344466448E-1,9.929103851E-1,2.267503738E0
1.706665692E1,-6.441435814E-1,9.274230003E-1,2.380147934E0
1.707688292E1,-3.304175138E-1,7.193670273E-1,2.651470184E0
1.708712092E1,1.010388136E-1,4.331064224E-1,3.119932175E0
1.709702692E1,5.254743099E-1,1.424417496E-1,3.714647293E0
1.710741292E1,8.245090842E-1,-1.265938282E-1,4.270196915E0
1.711678092E1,1.004802942E0,-3.780691624E-1,4.688900948E0
1.712703192E1,1.099882841E0,-6.220076084E-1,5.121874809E0
1.713673092E1,1.011527061E0,-8.490190506E-1,5.375426292E0
1.714683692E1,8.121946454E-1,-9.949040413E-1,5.306153297E0
1.715672592E1,6.563608050E-1,-1.135264277E0,4.795651436E0
1.716674492E1,5.483439565E-1,-1.229897738E0,3.830331802E0
1.717668592E1,5.164431930E-1,-1.213990450E0,2.707788467E0
1.718673092E1,6.187162399E-1,-1.171557546E0,1.789250374E0
1.719686492E1,8.344324827E-1,-1.208887696E0,1.040730476E0
1.720670792E1,1.119310498E0,-1.300911665E0,5.419816971E-1
1.721682892E1,1.361184359E0,-1.414875031E0,2.468490601E-1
1.722767292E1,1.427261710E0,-1.596189260E0,-2.432651520E-1
1.723672692E1,1.414980054E0,-1.614273548E0,-2.377319336E-1
1.724685692E1,1.289936662E0,-1.704619169E0,-4.186735153E-1
1.725671492E1,1.161610484E0,-1.786958098E0,-5.912275314E-1
1.726685692E1,8.104840517E-1,-1.780820012E0,-7.275876999E-1
1.727716392E1,6.463590264E-1,-1.738104224E0,-7.294349670E-1
1.728674992E1,5.109361410E-1,-1.650806665E0,-6.736507416E-1
1.729689692E1,4.235572815E-1,-1.530250907E0,-5.669202805E-1
1.731229292E1,3.462668359E-1,-1.372462749E0,-5.528497696E-1
1.732668392E1,-5.023524165E-3,-7.364460230E-1,-9.195184708E-1
1.733669292E1,-6.380970031E-2,-6.398482323E-1,-1.196062088E0
1.734673692E1,-1.328305602E-1,-5.461585522E-1,-1.603399754E0
1.735891592E1,-1.793477535E-1,-5.135983229E-1,-2.066920757E0
1.737668492E1,-3.684665561E-1,-3.718161583E-1,-2.936780930E0
1.738668792E1,-3.984665871E-1,-3.357853889E-1,-3.239856720E0
1.739666792E1,-4.136829972E-1,-3.167910576E-1,-3.450304508E0
1.740667392E1,-3.879500926E-1,-3.371055126E-1,-3.571494102E0
1.741664792E1,-3.522920609E-1,-3.410201073E-1,-3.552164078E0
1.742665792E1,-2.658547163E-1,-3.462445736E-1,-3.422717571E0
1.743704392E1,-1.206653416E-1,-3.709564209E-1,-3.207114220E0
1.744667392E1,-3.006225824E-2,-3.825430870E-1,-2.862057209E0
1.745679492E1,1.331818104E-2,-3.740298748E-1,-2.491354942E0
1.746665592E1,4.359357059E-2,-3.572499752E-1,-2.285885811E0
1.747669892E1,6.373678148E-2,-4.001948833E-1,-2.237824917E0
1.748681392E1,6.740123034E-3,-4.223706722E-1,-2.284220219E0
1.749664792E1,-1.087338030E-1,-3.503346443E-1,-2.451421261E0
1.750664592E1,-1.706916392E-1,-2.874615192E-1,-2.549608231E0
1.751677492E1,-1.951296926E-1,-2.307732105E-1,-2.596024513E0
1.752746892E1,-1.672782600E-1,-1.416466236E-1,-2.604760170E0
1.753667292E1,-5.955988169E-2,-1.054961681E-1,-2.507089615E0
1.754668792E1,6.124657393E-2,-7.605075836E-2,-2.379217625E0
1.755699092E1,1.598258913E-1,-3.435468674E-2,-2.194601536E0
1.756672092E1,2.402353436E-1,-1.327991486E-3,-1.950939655E0
1.757668192E1,1.917001605E-1,4.452347755E-2,-1.663305759E0
1.758669792E1,9.089177847E-2,7.453703880E-2,-1.334275246E0
1.759726192E1,-9.635522962E-2,9.544587135E-2,-1.028237343E0
1.760863292E1,-3.294953704E-1,1.675324440E-1,-6.877164841E-1
1.761678592E1,-4.726414680E-1,2.195386887E-1,-3.082914352E-1
1.762673692E1,-5.187566280E-1,2.295186520E-1,1.285867691E-1
1.764025692E1,-5.207780004E-1,3.599596024E-1,1.051198959E0
1.765668192E1,-4.943732917E-1,5.250527859E-1,1.486733437E0
1.766665792E1,-3.592596352E-1,6.408419609E-1,1.828353882E0
1.767665492E1,-1.666838527E-1,7.032568455E-1,2.144789696E0
1.768667892E1,2.101063728E-2,7.735636234E-1,2.531864166E0
1.769677492E1,7.086303830E-2,8.714126348E-1,2.720268250E0
1.770684292E1,7.725426555E-2,1.004771233E0,2.847236633E0
1.771687392E1,7.757088542E-2,1.100572944E0,2.802999496E0
1.772805092E1,7.472288609E-2,1.067996025E0,2.755165100E0
1.773685892E1,6.912520528E-2,1.018519759E0,2.758122444E0
1.774666592E1,3.314483166E-2,9.828412533E-1,2.866600990E0
1.775667392E1,1.570034921E-1,8.222767115E-1,3.151658058E0
1.776684292E1,3.435227275E-1,6.092851162E-1,3.561247826E0
1.777762992E1,6.833562851E-1,2.053235769E-1,4.507192612E0
1.778669692E1,6.603666544E-1,2.600749731E-1,4.495444298E0
1.779699092E1,4.212222695E-1,-1.697386503E-1,4.885478020E0
1.780667592E1,5.992007256E-2,-3.540217876E-1,4.697833061E0
1.781692292E1,-4.213530421E-1,-4.928333759E-1,4.286232948E0
1.782732392E1,-8.243200779E-1,-5.497428179E-1,3.717766762E0
1.783669692E1,-1.122518301E0,-5.724251270E-1,3.112490654E0
1.784704592E1,-1.287375808E0,-6.296411753E-1,2.563926697E0
1.785693092E1,-1.356669068E0,-6.265367270E-1,2.042212486E0
1.786669092E1,-1.325351477E0,-6.350294352E-1,1.597251892E0
1.787723292E1,-1.167884588E0,-7.321904302E-1,1.264810562E0
1.788670992E1,-9.450811148E-1,-7.604042888E-1,9.973421097E-1
1.789757792E1,-7.155909538E-1,-7.929425836E-1,7.501878738E-1
1.790686992E1,-5.006204844E-1,-8.434777856E-1,5.289287567E-1
1.791694492E1,-3.755736351E-1,-8.882930875E-1,3.198232651E-1
1.792687992E1,-3.712835908E-1,-8.715658188E-1,1.327915192E-1
1.793672792E1,-3.784632683E-1,-8.434945345E-1,4.929828644E-2
1.794668092E1,-4.259148836E-1,-8.289330006E-1,-3.754425049E-2
1.795688092E1,-5.537762046E-1,-8.331506252E-1,-1.745691299E-1
1.796670892E1,-6.385182142E-1,-6.211221218E-1,-3.694782257E-1
1.797789292E1,-6.545261145E-1,-3.329095840E-1,-5.666408539E-1
1.798733592E1,-6.612147093E-1,-1.146781445E-1,-7.465209961E-1
1.799667392E1,-6.221883297E-1,5.659306049E-2,-9.466419220E-1
1.800674092E1,-5.214765072E-1,1.507598162E-1,-1.065476418E0
1.801731992E1,-4.347558022E-1,1.863896847E-1,-1.196786880E0
1.802666792E1,-2.875000238E-1,1.944746971E-1,-1.409345627E0
1.803666692E1,-1.687293053E-1,2.195179462E-1,-1.666070461E0
1.804664492E1,-7.693982124E-2,2.516837120E-1,-1.916360378E0
1.805697492E1,1.582658291E-2,2.851902246E-1,-2.045742035E0
1.806669692E1,1.228189468E-1,3.248112202E-1,-2.184104443E0
1.807669192E1,2.018462420E-1,3.299318552E-1,-2.228139877E0
1.809159892E1,3.345167637E-1,2.948557138E-1,-2.387737274E0
1.810668492E1,3.542001247E-1,2.203946114E-1,-2.515720844E0
1.811665692E1,3.637638092E-1,1.864845753E-1,-2.634434223E0
1.812683492E1,3.948539495E-1,1.641503572E-1,-2.705121517E0
1.813698692E1,4.947011471E-1,1.330173016E-1,-2.660368443E0
1.814668492E1,6.145470142E-1,1.219947338E-1,-2.532923698E0
1.815683692E1,6.983538866E-1,1.090772152E-1,-2.511301517E0
1.816669692E1,7.541085482E-1,8.839523792E-2,-2.410576820E0
1.817839892E1,7.523443699E-1,9.867167473E-2,-2.423474312E0
1.818666992E1,7.675402164E-1,9.798312187E-2,-2.522167206E0
1.819686292E1,7.361775637E-1,1.111760139E-1,-2.623010159E0
1.820667492E1,6.930686235E-1,1.508812904E-1,-2.739057064E0
1.821677892E1,6.874231100E-1,1.816695929E-1,-2.828488827E0
1.822737592E1,7.410960197E-1,1.569936275E-1,-2.835043907E0
1.823669792E1,7.646774054E-1,2.095172405E-1,-2.799590588E0
1.824673392E1,8.152916431E-1,2.775759697E-1,-2.658743382E0
1.825679592E1,8.926290870E-1,2.638249397E-1,-2.459675312E0
1.826670292E1,9.275766611E-1,2.882478237E-1,-2.177244186E0
1.827692392E1,8.972776532E-1,3.687753677E-1,-1.793022156E0
1.828669692E1,8.543763757E-1,4.207305908E-1,-1.270401001E0
1.829689292E1,7.808970213E-1,4.462574720E-1,-8.254022598E-1
1.830668892E1,6.044462919E-1,5.248981714E-1,-4.373559952E-1
1.831675492E1,4.355354309E-1,6.265509129E-1,-1.199760437E-1
1.832667792E1,3.094023466E-1,6.943836212E-1,9.367370605E-2
1.833703692E1,2.147979736E-1,7.776321173E-1,3.401117325E-1
1.834687592E1,2.329368591E-1,1.012935400E0,6.477985382E-1
1.835674592E1,2.102172375E-1,9.024608135E-1,7.320852280E-1
1.836668892E1,1.950739622E-1,8.000113964E-1,7.704124451E-1
1.837687992E1,3.201223612E-1,9.305109978E-1,7.615022659E-1
1.838670592E1,4.659199119E-1,1.065562963E0,7.532720566E-1
1.839697392E1,6.200438738E-1,1.171579123E0,8.762359619E-1
1.840686892E1,7.340342999E-1,1.247200251E0,1.088898659E0
1.841671492E1,7.160066366E-1,1.320861340E0,1.234908104E0
1.842715992E1,5.365352035E-1,1.426713943E0,1.389713287E0
1.843669992E1,3.379907012E-1,1.445960999E0,1.580693245E0
1.844682092E1,3.087393641E-1,1.478915930E0,1.594571114E0
1.845692792E1,3.538341522E-1,1.402052641E0,1.544083595E0
1.846688292E1,4.620386362E-1,1.300099611E0,1.436151505E0
1.847672992E1,6.564601660E-1,1.262754202E0,1.514818192E0
1.848688692E1,8.042632937E-1,1.283082724E0,1.897923470E0
1.849671092E1,1.027596712E0,1.204440594E0,2.585144997E0
1.850672092E1,1.294846416E0,9.487915039E-1,3.599911690E0
1.851695592E1,1.509298801E0,5.802540779E-1,4.857419014E0
1.852669092E1,1.350829244E0,1.967693567E-1,6.091612816E0
1.853677492E1,8.653720617E-1,-1.704418659E-2,7.119317055E0
1.854682792E1,3.049670160E-1,-1.261307001E-1,7.652682304E0
1.855675392E1,-9.320324659E-2,-2.740728855E-1,7.532402039E0
1.856701092E1,-3.105987310E-1,-4.507637024E-1,6.877301216E0
1.857665392E1,-2.738079429E-1,-4.579064250E-1,6.009554863E0
1.858956692E1,-3.941756487E-2,-3.457078934E-1,5.011584282E0
1.860685492E1,7.377220392E-1,-3.186129332E-1,3.236294746E0
1.861669492E1,1.205317974E0,-3.472462893E-1,2.364381790E0
1.862668092E1,1.594582438E0,-3.495229483E-1,1.548130989E0
1.863669392E1,1.921849728E0,-3.981990814E-1,8.408403397E-1
1.864668892E1,2.214467525E0,-4.626048803E-1,1.529941559E-1
1.865666692E1,2.378537178E0,-5.023561716E-1,-5.528526306E-1
1.866687992E1,2.403448105E0,-5.546958447E-1,-1.224083900E0
1.867667092E1,2.329738140E0,-5.436843634E-1,-1.781865120E0
1.868668992E1,2.114278793E0,-5.541762114E-1,-2.138185024E0
1.869755692E1,1.807392836E0,-5.700401068E-1,-2.285549641E0
1.870670292E1,1.500565171E0,-5.798273087E-1,-2.287316322E0
1.871669892E1,1.218966484E0,-6.567364931E-1,-2.174908638E0
1.872666792E1,9.355605841E-1,-7.204569578E-1,-2.003355503E0
1.873670192E1,7.643859982E-1,-7.501360178E-1,-1.889225483E0
1.874888692E1,6.565750241E-1,-8.214004040E-1,-1.895860195E0
1.876668492E1,3.376791179E-1,-8.154178858E-1,-1.860579014E0
1.877665192E1,2.800381780E-1,-8.010476828E-1,-1.714819908E0
1.878668292E1,2.779819965E-1,-7.830346823E-1,-1.633294106E0
1.879679592E1,3.190240264E-1,-7.580525875E-1,-1.604664326E0
1.880666392E1,3.979532123E-1,-7.500896454E-1,-1.546156883E0
1.881713392E1,5.447943807E-1,-7.955310345E-1,-1.588210583E0
1.882669792E1,6.624493599E-1,-8.344826698E-1,-1.692437172E0
1.883668392E1,7.072424293E-1,-7.967476845E-1,-1.843880177E0
1.884668192E1,7.570269108E-1,-7.739542723E-1,-2.044498920E0
1.885670792E1,8.814100027E-1,-8.156965971E-1,-2.259000778E0
1.886702192E1,9.756429195E-1,-8.220317364E-1,-2.598134041E0
1.887680192E1,1.179597139E0,-7.055190802E-1,-2.607508659E0
1.888685692E1,1.293681145E0,-7.224788666E-1,-2.593661785E0
1.889713192E1,1.361374021E0,-7.023122311E-1,-2.576612473E0
1.890673192E1,1.457870007E0,-6.443550587E-1,-2.495953083E0
1.891679792E1,1.555453062E0,-6.129703522E-1,-2.424453259E0
1.892667292E1,1.621134281E0,-6.007318497E-1,-2.382696629E0
1.893672092E1,1.640383959E0,-5.607461929E-1,-2.423935890E0
1.894684692E1,1.578647614E0,-5.212280750E-1,-2.498512268E0
1.895687292E1,1.513126373E0,-4.500126839E-1,-2.569846630E0
1.896732892E1,1.517551661E0,-4.050586224E-1,-2.645948410E0
1.897675392E1,1.539054155E0,-3.552410603E-1,-2.719570160E0
1.898673892E1,1.532586575E0,-2.696218491E-1,-2.775450230E0
1.899790392E1,1.508540511E0,-1.659810543E-1,-2.730318069E0
1.900671092E1,1.459329128E0,-6.849622726E-2,-2.593401909E0
1.901665092E1,1.377586365E0,9.312963486E-2,-2.358334064E0
1.902660192E1,1.249391913E0,2.682480812E-1,-2.024080753E0
1.903673992E1,1.171269178E0,4.284806252E-1,-1.633496761E0
1.904702492E1,1.137654662E0,5.608677864E-1,-1.274453163E0
1.905676292E1,1.107400894E0,7.162322998E-1,-9.543294907E-1
1.906690392E1,1.064736843E0,8.536126614E-1,-7.917156219E-1
1.907765792E1,1.032707453E0,9.958946705E-1,-6.866512299E-1
1.908667392E1,1.008649588E0,1.153684139E0,-6.271677017E-1
1.909666292E1,1.005615711E0,1.346360445E0,-4.304132462E-1
1.910672392E1,1.079113126E0,1.515978575E0,-1.029758453E-1
1.911677492E1,1.218952656E0,1.585102558E0,2.078380585E-1
1.912771792E1,1.343671679E0,1.610442638E0,4.252347946E-1
1.913676192E1,1.304853201E0,1.626345634E0,7.624778748E-1
1.914666792E1,1.127753615E0,1.684978724E0,1.223635674E0
1.915677992E1,9.395496845E-1,1.736817837E0,1.611454010E0
1.916669992E1,7.416211367E-1,1.732787609E0,1.889225006E0
1.917671192E1,5.668240786E-1,1.709418297E0,2.186216354E0
1.918669792E1,4.266194701E-1,1.748597145E0,2.315655708E0
1.919694392E1,3.618093729E-1,1.771001101E0,2.213356018E0
1.920669392E1,3.330250978E-1,1.804189920E0,2.007740974E0
1.921669192E1,3.195632696E-1,1.919794321E0,1.632109642E0
1.922665592E1,3.610439301E-1,1.900100708E0,1.137958527E0
1.923668192E1,6.213380694E-1,1.708811760E0,9.000291824E-1
1.924720692E1,9.601070881E-1,1.556229115E0,9.562139511E-1
1.925692992E1,1.163545728E0,1.632513762E0,1.089003563E0
1.926718692E1,1.243505716E0,1.670711994E0,1.293662071E0
1.927854492E1,1.225028515E0,1.306268692E0,1.858160973E0
1.928669292E1,1.097570658E0,7.229647636E-1,2.506817818E0
1.929685992E1,7.765381336E-1,4.410767555E-2,3.160838127E0
1.930668192E1,7.557612658E-2,-4.481961727E-1,4.141426086E0
1.931671892E1,-7.074791193E-1,-6.454856396E-1,4.925548553E0
1.932695792E1,-1.249456167E0,-7.982039452E-1,5.302401543E0
1.933709192E1,-1.432251215E0,-9.801654816E-1,5.408861160E0
1.934690292E1,-1.390960574E0,-1.026314139E0,5.148916245E0
1.935666292E1,-1.137180686E0,-1.014580846E0,4.506782532E0
1.936695792E1,-7.729728222E-1,-1.068391085E0,3.308152199E0
1.938009492E1,-3.080214262E-1,-1.148780823E0,5.119285583E-1
1.939667892E1,-4.210630059E-1,-1.033246517E0,-7.290239334E-1
1.940666392E1,-6.104556918E-1,-1.167965174E0,-2.036030769E0
1.941687392E1,-1.360219836E0,-1.427058101E0,-3.047757626E0
1.942671992E1,-1.360216737E0,-9.789299965E-1,-3.044481277E0
1.943670392E1,-9.428158998E-1,-1.879275203E0,-2.961687088E0
1.944729792E1,-8.131700754E-1,-2.407087803E0,-2.414068699E0
1.945663992E1,-1.751491189E0,-1.527966976E0,-2.915816307E0
1.946685192E1,-2.058211803E0,-9.579303265E-1,-2.460809231E0
1.947682592E1,-2.182942390E0,-5.684392452E-1,-1.977375984E0
1.948670992E1,-2.091621399E0,-3.959228992E-1,-1.365081787E0
1.949762992E1,-1.705564618E0,-6.441693306E-1,-5.375585556E-1
1.950669892E1,-9.645591974E-1,-1.121812582E0,2.237977982E-1
1.951686792E1,-4.176092148E-1,-1.575249195E0,6.617269516E-1
1.952680292E1,-1.239097714E-1,-1.798382044E0,8.578166962E-1
1.953673692E1,1.122685075E-1,-1.859124899E0,7.939796448E-1
1.954687192E1,3.106682897E-1,-1.787756205E0,5.555038452E-1
1.955671192E1,3.583190143E-1,-1.574147463E0,1.993713379E-1
1.956682492E1,3.252633810E-1,-1.315455914E0,-2.794485092E-1
1.957700792E1,3.446838558E-1,-1.083718777E0,-7.176208496E-1
1.958673692E1,3.932382464E-1,-8.725545406E-1,-1.051438808E0
1.959668892E1,4.798743129E-1,-6.485724449E-1,-1.174085140E0
1.960667092E1,6.622630954E-1,-4.857940674E-1,-1.315342903E0
1.961665392E1,8.575362563E-1,-3.178060055E-1,-1.530608177E0
1.962684692E1,1.081995964E0,-2.388989925E-1,-1.898557186E0
1.963677992E1,1.395059824E0,-2.542774677E-1,-2.234105587E0
1.964667592E1,1.571607590E0,-1.780877113E-1,-2.399422169E0
1.965693992E1,1.561766148E0,-2.974224091E-2,-2.442719460E0
1.966666692E1,1.335852385E0,8.608627319E-2,-2.378583908E0
1.967685992E1,1.120710731E0,1.671204567E-1,-1.961490631E0
1.968669092E1,1.078540325E0,1.693220139E-1,-1.517912388E0
1.969665892E1,1.110776663E0,1.114110947E-1,-1.212458611E0
1.970686592E1,1.199784517E0,1.783971786E-1,-8.610401154E-1
1.971673592E1,1.298814178E0,3.311085701E-1,-5.144481659E-1
1.972672892E1,1.361785650E0,4.796941280E-1,-2.694358826E-1
1.973691592E1,1.357934237E0,5.893299580E-1,-2.200279236E-1
1.974710792E1,1.274067640E0,5.966014862E-1,-3.288316727E-1
1.975689592E1,9.971760511E-1,4.163544178E-1,-4.330081940E-1
1.976674192E1,8.914902210E-1,2.293214798E-1,-5.058374405E-1
1.977663292E1,8.649605513E-1,4.797220230E-2,-5.245981216E-1
1.978670392E1,7.336094379E-1,8.284783363E-2,-6.229143143E-1
1.979739792E1,5.126385093E-1,2.012603283E-1,-8.002939224E-1
1.980672792E1,1.841790378E-1,4.449794292E-1,-8.547420502E-1
1.981678292E1,-2.173720598E-1,7.069261074E-1,-7.849998474E-1
1.982670992E1,-6.051109433E-1,8.710691929E-1,-6.011133194E-1
1.983669892E1,-8.839164972E-1,9.325599670E-1,-2.179660797E-1
1.984668892E1,-1.031865597E0,9.519579411E-1,5.649967194E-1
1.985732992E1,-1.016887188E0,8.398783207E-1,1.392800331E0
1.986709592E1,-7.918322682E-1,6.184146404E-1,2.060783386E0
1.987668692E1,-5.343853831E-1,4.134621620E-1,2.537278175E0
1.988670892E1,-3.553893268E-1,3.571319580E-1,2.683073997E0
1.989669192E1,-2.534855008E-1,4.158599377E-1,2.569672585E0
1.990690092E1,-1.051800251E-1,5.659866333E-1,2.397030830E0
1.991668492E1,2.447727323E-2,8.184447289E-1,2.271838188E0
1.992693692E1,9.884208441E-2,1.093637943E0,2.270002365E0
1.993768992E1,3.671428859E-1,1.021233082E0,1.962390900E0
1.994665992E1,3.276566863E-1,9.753096104E-1,1.980807304E0
1.995678992E1,2.232492268E-1,5.727694035E-1,1.700222015E0
1.996667292E1,3.677213192E-2,4.299662113E-1,1.879462242E0
1.997665592E1,-8.386880159E-2,1.556396484E-1,2.192917824E0
1.998761792E1,-1.356368512E-1,-1.872122288E-1,2.505158424E0
1.999673292E1,-1.262039691E-1,-5.145876408E-1,2.695983887E0
2.000683092E1,-4.624007642E-2,-7.014648914E-1,2.840729713E0
2.001665492E1,1.531711221E-2,-6.636259556E-1,2.880264282E0
2.002669092E1,1.311617494E-1,-5.861206055E-1,2.786882401E0
2.003681692E1,2.655592561E-1,-5.897796154E-1,2.473628044E0
2.004684392E1,5.253393650E-1,-6.540737152E-1,1.848480225E0
2.005673692E1,7.529993653E-1,-8.832149506E-1,1.047970772E0
2.006665092E1,9.579868317E-1,-1.054258823E0,5.311002731E-1
2.007683992E1,1.155105591E0,-1.214414835E0,1.470432281E-1
2.008690092E1,1.324324369E0,-1.430266857E0,-2.007408142E-1
2.009667692E1,1.497470260E0,-1.657103062E0,-4.824533463E-1
2.010802692E1,1.667261600E0,-1.693032742E0,-7.836322784E-1
2.011718992E1,1.703278780E0,-1.657649279E0,-1.092077732E0
2.012670292E1,1.635808110E0,-1.640809536E0,-1.254390717E0
2.013669892E1,1.424500704E0,-1.687900543E0,-1.313150406E0
2.014665592E1,1.223188877E0,-1.770092010E0,-1.217391491E0
2.015914692E1,1.121102333E0,-1.840146065E0,-1.307569027E0
2.017679692E1,4.518557489E-1,-1.780426025E0,-1.288019180E0
2.018669092E1,7.592764497E-2,-1.674573898E0,-1.011561394E0
2.019668192E1,-2.369888425E-1,-1.639744997E0,-8.620796204E-1
2.020740392E1,-2.340713441E-1,-1.645555735E0,-9.451665878E-1
2.021665592E1,2.326351404E-2,-1.461286783E0,-1.212115765E0
2.022672492E1,1.836750209E-1,-1.116523027E0,-1.486250877E0
2.023667792E1,4.043326378E-1,-3.068046570E-1,-3.694509506E0
2.024669392E1,3.425156772E-1,-1.951785088E-1,-3.363015652E0
2.025662092E1,4.319064319E-1,1.066446304E-2,-1.452717304E0
2.026727292E1,1.638612151E-1,-1.878452301E-1,2.667598724E-1
2.027784892E1,-5.393856764E-1,-5.581111908E-1,1.312531471E0
2.028691992E1,-1.235605001E0,-3.497173786E-1,1.279429436E0
2.029689492E1,-1.641110778E0,-1.461842060E0,-8.464241028E-1
2.030712192E1,-1.502806544E0,-2.012127161E0,-2.228487492E0
2.031672992E1,-1.432644725E0,1.864447594E-1,-8.514404297E-1
2.032674592E1,-7.064176798E-1,5.649027824E-1,-7.198543549E-1
2.033670292E1,6.682783961E-1,-4.414124489E-1,-3.545074463E-1
2.034666892E1,1.403636694E0,-6.636986732E-1,-9.737491608E-2
2.035685392E1,1.578893900E0,-5.577065945E-1,1.848440170E-1
2.036669692E1,1.127314210E0,-6.562254429E-1,4.874134064E-1
2.037679392E1,5.173324943E-1,-6.932144165E-1,3.898973465E-1
2.038693792E1,1.098632812E-3,-7.513232231E-1,4.288148880E-1
2.039720292E1,4.070303440E-1,-1.645108700E0,3.085031509E-1
2.040671192E1,6.144766212E-1,-1.212773561E0,2.275419235E-1
2.041740892E1,8.337652683E-1,-4.725782871E-1,-1.432514191E-1
2.042666092E1,1.007136106E0,-2.855286598E-1,-6.143331528E-1
2.043696992E1,1.365206361E0,-2.706699371E-1,-9.816451073E-1
2.044688092E1,1.622428179E0,-3.001570702E-1,-1.074789524E0
2.045690992E1,2.615612745E-1,-7.644760609E-1,-1.156601906E0
2.046674692E1,1.232231617E0,4.316520691E-2,-1.899423599E-1
2.047685392E1,1.952200890E0,5.499558449E-1,6.401185989E-1
2.048688692E1,8.527722359E-1,3.929305077E-1,-2.300758362E-1
2.049670392E1,2.785657644E-1,7.506256104E-1,-3.247604370E-1
2.050673892E1,-2.511844635E-1,1.278326511E0,3.352022171E-1
2.051668192E1,-6.678993702E-1,1.528978825E0,1.021430492E0
