"Time (s)","Linear Acceleration x (m/s^2)","Linear Acceleration y (m/s^2)","Linear Acceleration z (m/s^2)"
3.536625100E-2,1.217365265E-2,-1.915454865E-2,-1.440286636E-2
5.115750100E-2,-2.821731567E-2,1.382827759E-3,8.783721924E-2
6.453262600E-2,-2.544784546E-2,-2.025127411E-2,1.642313004E-1
7.577618800E-2,6.153059006E-2,-6.416797638E-2,1.615967751E-1
8.639096900E-2,6.264877319E-2,-4.371881485E-2,9.431505203E-2
9.672186000E-2,5.293798447E-2,-2.795410156E-2,8.560800552E-2
1.067873050E-1,5.915594101E-2,-9.804248810E-3,5.579757690E-2
1.169205280E-1,1.598138809E-1,-8.381414413E-2,-1.473903656E-3
1.268951390E-1,2.209882736E-1,-1.236701012E-1,-4.790496826E-2
1.369339450E-1,1.610498428E-1,-6.294727325E-3,-5.678796768E-2
1.469613480E-1,2.206182480E-2,1.397633553E-1,3.310728073E-2
1.569660490E-1,-1.668930054E-1,2.919549942E-1,1.674675941E-1
1.675984000E-1,-7.985038757E-1,7.149682045E-1,8.272647858E-1
1.773005750E-1,-7.672348022E-1,7.476148605E-1,8.104562759E-1
1.871721630E-1,-3.594145775E-1,6.892061234E-1,1.428141117E0
1.979464570E-1,1.080265045E-1,5.199966431E-1,1.358893871E0
2.074061040E-1,1.630718708E-1,4.605426788E-1,1.423407078E0
2.171364270E-1,-5.498456955E-2,5.174813271E-1,1.470551014E0
2.269965890E-1,-2.930030823E-1,6.270914078E-1,1.308438301E0
2.369871700E-1,-1.188483715E0,1.769221783E0,1.522126675E0
2.477319600E-1,-1.552049160E0,1.694598198E0,2.856464386E-1
2.573573550E-1,-6.030392647E-1,7.501783371E-1,7.689127922E-1
2.671005530E-1,1.477249146E0,-7.221474648E-1,1.493640900E0
2.770131520E-1,1.041177750E0,-6.367192268E-1,3.688764572E-1
2.869854510E-1,-1.603257656E-1,8.187761307E-1,-2.376451492E-1
2.971686010E-1,1.486090541E0,1.486861706E0,-9.656929970E-1
3.070231760E-1,1.912327766E0,2.798695564E-1,-2.466727257E0
3.170099630E-1,1.335029960E0,1.709575653E-1,-2.309681416E0
3.271038570E-1,1.139383912E0,-1.235046387E-1,-1.736151695E0
3.370243040E-1,1.780101418E0,-5.728220940E-1,-1.248777866E0
3.469495270E-1,2.366677284E0,-9.382014275E-1,-9.096908569E-1
3.569596390E-1,2.571048260E0,-1.180020332E0,-8.163089752E-1
3.669081950E-1,2.557270288E0,-1.338004112E0,-8.241248131E-1
3.770629730E-1,2.422459602E0,-1.250580788E0,-6.827626228E-1
3.869688620E-1,2.125090599E0,-8.590321541E-1,-6.640558243E-1
3.969603060E-1,1.615564108E0,-5.779337883E-1,-5.697326660E-1
4.069115280E-1,8.975015879E-1,-2.363338470E-1,-5.061392784E-1
4.169026390E-1,2.640978098E-1,-1.285934448E-1,-4.063010216E-1
4.281451950E-1,-2.744414806E-1,1.489605904E-1,-1.958322525E-2
4.375189730E-1,-1.054113626E0,9.251480103E-1,-7.402133942E-1
4.471858620E-1,-3.942942619E-2,1.117909908E0,-1.094333649E0
4.570923060E-1,1.254984379E0,-6.989002228E-2,-1.397681713E0
4.669630280E-1,1.837024450E0,-8.698315620E-1,-1.815112591E0
4.775948890E-1,2.343942404E0,-1.354563236E0,-2.891122818E0
4.873673200E-1,2.336916685E0,-7.999815941E-1,-1.210690975E0
4.977595350E-1,1.224029183E0,2.128648758E-2,-1.108941555E0
5.073446430E-1,8.700055480E-1,-5.718898773E-2,-1.135243416E0
5.171846970E-1,1.089248419E0,-3.665070534E-1,-9.179883003E-1
5.270842240E-1,1.014795065E0,-4.636793137E-1,-9.136428833E-1
5.370004870E-1,8.041422367E-1,-4.682774544E-1,-6.360616684E-1
5.474611190E-1,1.210510492E0,-5.448293686E-2,4.929733276E-1
5.572019350E-1,7.816168070E-1,3.411169052E-1,8.282766342E-1
5.670438430E-1,-3.208297491E-1,9.274477959E-1,9.212732315E-1
5.770262970E-1,-1.115557075E0,2.165853500E0,1.451928139E0
5.870030240E-1,2.028697729E-1,4.553160667E-1,9.395294189E-1
5.970203870E-1,1.586565971E0,-8.466610909E-1,2.668161392E-1
6.069700690E-1,3.140148878E0,-1.462893248E0,-6.604208946E-1
6.174299100E-1,3.768667459E0,-1.645512581E-1,-1.523245335E0
6.271443300E-1,3.447038412E0,1.392405987E0,-1.814002037E0
6.370640400E-1,2.494010687E0,1.359325886E0,-2.080461502E0
6.469728950E-1,6.945089698E-1,1.669804573E0,-1.694928646E0
6.569903230E-1,-1.006916389E-1,1.088099003E0,-5.237598419E-1
6.670280370E-1,-6.088551283E-1,3.605117798E-1,4.073495865E-1
6.769718940E-1,-9.305308461E-1,1.772665977E-1,1.356313705E0
6.869428220E-1,-5.524851084E-1,1.524491310E-1,1.936603546E0
6.976917860E-1,9.180587530E-1,5.097341537E-2,2.563620567E0
7.073227680E-1,7.406710386E-1,5.689382553E-2,2.574249268E0
7.172312590E-1,4.721937776E-1,1.873636246E-1,1.918058395E0
7.270670050E-1,-1.247848272E-1,1.458353996E-1,5.752515793E-1
7.370403780E-1,-3.681915998E-1,-7.736921310E-2,6.068706512E-2
7.472160640E-1,-6.872900724E-1,-1.563739777E-1,1.170148849E-1
7.570504070E-1,-9.568575621E-1,-2.473073006E-1,9.211616516E-1
7.669685790E-1,-1.203817129E0,-8.062267303E-2,1.592517853E0
7.769981650E-1,-9.246554375E-1,-3.312067986E-1,2.300583839E0
7.870399580E-1,-7.094376087E-1,-9.505200386E-1,3.044573784E0
7.972073540E-1,-4.954051971E-1,-1.621376514E0,2.768545151E0
8.070710520E-1,-5.476055145E-1,-1.821693897E0,1.428584576E0
8.175654010E-1,-1.002109528E0,-1.674963236E0,6.037807465E-2
8.279180760E-1,-1.609285116E0,-1.082781315E0,-1.552425861E0
8.374049130E-1,-2.229688168E0,-3.664751053E-1,-2.265090466E0
8.471423320E-1,-2.507373333E0,-1.056294441E-1,-2.462276459E0
8.574605410E-1,-2.474213123E0,-3.166880608E-1,-2.488559723E0
8.674901460E-1,-2.233234882E0,-5.966000557E-1,-2.532648087E0
8.773449480E-1,-2.029562712E0,-4.847974777E-1,-2.150520325E0
8.871543490E-1,-1.785834312E0,-3.818554878E-1,-1.732661724E0
8.970020500E-1,-1.504669666E0,-6.791853905E-1,-1.179660797E0
9.069409000E-1,-1.357928753E0,-1.107330799E0,-1.199656963E0
9.170653250E-1,-1.480081081E0,-1.269728661E0,-1.301043034E0
9.269525380E-1,-1.652866364E0,-1.374476433E0,-1.231430531E0
9.373781440E-1,-1.760551453E0,-1.415669918E0,-1.053506374E0
9.471504470E-1,-1.654104710E0,-1.046727180E0,-4.760074615E-1
9.570305990E-1,-1.101466179E0,-1.356287003E-1,-1.037907362E0
9.669316750E-1,1.764359474E-1,2.999000549E-1,-1.856277466E0
9.769017130E-1,3.527450562E-1,-1.040601730E-2,-1.481688261E0
9.874312320E-1,7.434501648E-1,-1.111925602E0,-1.580947876E0
9.971504910E-1,9.046926498E-1,-1.906950474E0,-1.137976408E0
1.007026621E0,6.002316475E-1,-2.258115530E0,-8.698792458E-1
1.016976186E0,-2.356581688E-1,-2.326774597E0,-8.284597397E-1
1.026991468E0,-7.401309013E-1,-2.700292587E0,-1.508541822E0
1.036899609E0,-9.692072868E-1,-2.598738670E0,-2.505991220E0
1.046872680E0,-1.099071503E0,-2.318974257E0,-3.513209581E0
1.057173715E0,-1.124797821E0,-2.090249062E0,-3.983968735E0
1.067050733E0,2.417755127E-2,-2.309728384E0,-3.588583946E0
1.077332742E0,2.971725464E-1,-3.378215790E0,-1.846481323E0
1.087077246E0,3.127279282E-1,-4.414441109E0,-2.234177589E0
1.097281998E0,7.254915237E-1,-4.766653538E0,-3.780749083E0
1.107072874E0,6.554422379E-1,-4.121060371E0,-4.264429092E0
1.117068812E0,6.402101517E-1,-3.309938192E0,-3.443654060E0
1.127239281E0,8.703641891E-1,-2.850488901E0,-2.332740545E0
1.137038016E0,1.698875427E0,-3.162257910E0,-1.721328735E0
1.147786883E0,2.874217033E0,-4.067803860E0,-7.348521352E-1
1.157332317E0,3.957679749E0,-5.069222450E0,4.682172239E-1
1.167111034E0,5.025429726E0,-5.984380722E0,1.426633835E0
1.177608392E0,5.670915604E0,-6.010132790E0,1.900491714E0
1.187230071E0,5.662044525E0,-5.133983135E0,1.518508434E0
1.197708911E0,4.937663078E0,-3.445530415E0,-1.301267266E0
1.207334831E0,4.946089745E0,-3.153976202E0,-1.135058403E0
1.217591791E0,4.144503593E0,-1.774945736E0,-1.284251451E0
1.227936771E0,4.638764381E0,-1.483817577E0,1.362246275E-1
1.237424261E0,4.667257309E0,-1.156510830E0,1.874713898E-1
1.247139006E0,4.971356392E0,-1.201249123E0,1.135330319E0
1.257083378E0,6.048220634E0,-2.016984940E0,1.117943764E0
1.267376564E0,5.747745514E0,-9.599666595E-1,3.654952049E-1
1.277122157E0,4.822195053E0,2.420423031E-1,-5.079699755E-1
1.286970454E0,4.007397652E0,1.266793966E0,-1.120964646E0
1.296945102E0,3.313026428E0,1.850264907E0,-1.632993579E0
1.306933426E0,2.848199844E0,2.097591877E0,-1.793803096E0
1.317485088E0,2.848389626E0,2.289692879E0,-1.043179750E0
1.327210919E0,2.766632080E0,2.148517132E0,2.674573660E-1
1.337507835E0,2.929181099E0,1.787683010E0,4.405529499E-1
1.347191793E0,3.050410271E0,1.657545328E0,8.512193561E-1
1.357081772E0,2.207311630E0,1.872898221E0,6.183049679E-1
1.367063761E0,1.778141975E0,2.089486361E0,-1.429736614E-2
1.376975256E0,1.268736839E0,2.162533760E0,-3.135288060E-1
1.387180503E0,6.102886200E-1,2.047729015E0,-5.845335126E-2
1.397042627E0,-1.640977859E-1,1.709189653E0,-2.176537514E-1
1.406966689E0,-8.590488434E-1,1.600387096E0,-2.026497602E0
1.416940720E0,-1.624232292E0,1.558656216E0,-1.654555321E0
1.426934735E0,-2.369871140E0,1.154379368E0,-2.557664871E0
1.437517243E0,-2.988854885E0,7.200069427E-1,-2.741207838E0
1.447222497E0,-3.398589134E0,3.132765293E-1,-4.188495159E0
1.457134624E0,-3.457564354E0,-1.758961678E-1,-3.928011894E0
1.467647187E0,-3.203172207E0,-6.383748055E-1,-3.243569851E0
1.477364469E0,-2.932441711E0,-1.071246624E0,-2.490661860E0
1.487150610E0,-2.822480679E0,-1.522381306E0,-1.955991507E0
1.497013180E0,-2.453204632E0,-1.673412800E0,-2.105928421E0
1.506955965E0,-1.534816742E0,-1.319095612E0,-2.121630907E0
1.516924358E0,-6.531753540E-1,-5.626821518E-1,-1.390094161E0
1.526936554E0,2.454090118E-2,-1.919460297E-2,-1.126155615E0
1.536989152E0,7.610330582E-1,1.189908981E-1,-1.262832761E0
1.546934951E0,1.385913849E0,2.292728424E-1,-1.260858774E0
1.556948851E0,1.696850777E0,2.887325287E-1,-1.173650384E0
1.566921301E0,2.536482811E0,1.172990799E-1,-1.215311527E0
1.576938026E0,3.245102882E0,2.240505219E-1,-9.794605970E-1
1.587010888E0,3.884039879E0,4.585471153E-1,-1.081195354E0
1.596932319E0,4.539861679E0,7.654676437E-1,-1.930940747E0
1.606918035E0,4.641400337E0,1.063868523E0,-3.056137085E0
1.616920893E0,4.316267967E0,1.298125982E0,-3.865756989E0
1.626907822E0,3.850088120E0,1.367892742E0,-4.119335651E0
1.636909286E0,2.722663879E0,1.520636797E0,-4.235801697E0
1.646907018E0,2.760001183E0,1.686513662E0,-4.913937569E0
1.656997884E0,5.738824844E0,2.068425894E0,-4.886055946E0
1.666987317E0,6.130326271E0,1.687798977E0,-4.641083717E0
1.676942034E0,4.949440002E0,1.357360601E0,-5.558717728E0
1.686899892E0,5.828560829E0,1.497409582E0,-6.276866913E0
1.697435821E0,4.743030548E0,1.314938307E0,-5.827613831E0
1.707272286E0,3.113776207E0,9.713702202E-1,-4.810078144E0
1.717082018E0,1.221445084E0,6.225836277E-1,-3.840928078E0
1.730871884E0,-7.851600647E-2,-3.132596016E-1,-3.082454205E-1
1.746931751E0,-7.851600647E-2,-3.132596016E-1,-3.082454205E-1
1.756923751E0,-7.912940979E-1,-2.283375740E0,1.418399572E0
1.767037751E0,4.219226837E-1,-1.187568665E0,2.353428125E0
1.776837751E0,-1.737861633E-1,-7.130913734E-1,3.943382025E0
1.787932751E0,1.177706718E0,3.934428692E-1,2.395047426E0
1.796899751E0,1.086409569E0,1.360950470E-1,2.509425402E0
1.806888751E0,8.437719345E-1,-2.213239670E0,4.399081230E0
1.816883751E0,-1.197411537E0,-1.390571237E0,4.961603165E0
1.826867751E0,-2.020359039E0,-4.579235315E-1,5.822336197E0
1.836863751E0,-2.491010189E0,9.512570500E-1,4.462577820E0
1.846840751E0,-2.865931988E0,2.034232616E0,3.768957138E0
1.856816751E0,-2.350739479E0,9.715598226E-1,3.272681713E0
1.867003751E0,-2.400991917E0,-1.058362722E0,2.658183813E0
1.877641751E0,-2.951312542E0,-4.050530434E0,3.138035536E-1
1.887011751E0,-2.399378300E0,-5.696021557E0,-6.034297347E-1
1.896831751E0,-1.623551369E0,-4.721389771E0,1.117172837E0
1.906983751E0,-1.921217442E0,-3.428980827E0,1.416423440E0
1.916946751E0,-1.501668930E0,-1.956465602E0,-2.519762516E-1
1.927046751E0,-2.179756165E-1,-5.405198932E-1,-3.885773420E-1
1.936856751E0,-3.398370743E-1,-1.214749813E-1,-9.368249178E-1
1.946975751E0,-1.490769386E0,-1.009503007E0,-1.611697674E-2
1.956906751E0,-3.033153534E0,-1.754229784E0,1.696416974E0
1.966884751E0,-4.930629253E0,-1.667698741E0,1.690680504E0
1.976853751E0,-7.037886620E0,-9.511940479E-1,1.393947959E0
1.987196751E0,-8.119668007E0,-1.400820971E0,9.837023020E-1
1.998343751E0,-6.649705887E0,-4.101959229E0,2.823606014E0
2.006873751E0,-4.357569218E0,-5.893019676E0,3.160168171E0
2.016879751E0,-2.731379986E0,-5.283574581E0,4.229122162E0
2.026891751E0,-1.827821255E0,-3.942909241E0,4.198772907E0
2.036876751E0,-1.709175110E0,-2.401585579E0,3.662936211E0
2.046854751E0,-1.870029449E0,-4.412696362E-1,1.747612953E0
2.056837751E0,-2.648931503E0,5.970709324E-1,3.736672401E-1
2.066963751E0,-2.559040546E0,7.234408855E-1,-1.135229111E0
2.076908751E0,-2.158125877E0,7.101041079E-1,-1.826737285E0
2.086869751E0,-2.047224998E0,6.633868217E-1,-2.170007706E0
2.096830751E0,-1.743731976E0,-3.542900085E-2,-2.312722683E0
2.107182751E0,-1.786561966E0,-7.149009705E-1,-2.177612305E0
2.116948751E0,-2.137826443E0,-9.587469101E-1,-2.340746641E0
2.126894751E0,-2.499208927E0,-1.026405334E0,-2.690640450E0
2.136856751E0,-2.672746181E0,-7.693283558E-1,-2.781360149E0
2.146890751E0,-2.622912884E0,-3.195009232E-1,-2.310876369E0
2.157045751E0,-2.443834782E0,-2.649116516E-2,-1.659024596E0
2.166940751E0,-2.020361423E0,4.402732849E-2,-9.997189045E-1
2.176938751E0,-1.359835625E0,1.945734024E-2,-7.841221690E-1
2.192116751E0,3.272542953E-1,-7.530798912E-1,-5.628215075E-1
2.206883751E0,1.387244701E0,-9.587492943E-1,-1.469628811E-1
2.218338751E0,2.251419067E0,-1.742104053E0,3.250373602E-1
2.226944751E0,1.898360729E0,-2.030385971E0,2.083323002E-1
2.236908751E0,1.871425152E0,-2.196510792E0,9.631395340E-2
2.247056751E0,1.583085537E0,-1.996299267E0,-2.302969694E-1
2.256961751E0,1.059153557E0,-1.976131916E0,-1.778384447E-1
2.266906751E0,6.407179832E-1,-1.804183006E0,-1.366406679E-1
2.276882751E0,4.064731598E-1,-1.569764614E0,-4.288204908E-1
2.289813751E0,-1.955032349E-4,-8.495955467E-1,-1.483579636E0
2.307061751E0,3.072161674E-1,-3.469567299E-1,-2.109759331E0
2.317188751E0,1.100773811E-1,-2.114892006E-1,-2.249340057E0
2.326986751E0,-4.973044395E-1,3.156929016E-1,-2.241850853E0
2.336918751E0,-1.268341541E0,1.423539639E0,-1.770662904E0
2.346847751E0,-3.721244812E0,2.531523228E0,-1.754662275E0
2.357019751E0,-4.269300938E0,2.001743317E0,-1.075271249E0
2.367106751E0,-5.060903549E0,2.493124008E0,-2.214882612E0
2.376975751E0,-5.809289932E0,2.775816441E0,-3.139956474E0
2.387098751E0,-5.901901245E0,2.883141518E0,-3.335470200E0
2.396855751E0,-5.207966805E0,2.666934967E0,-2.795060396E0
2.406911751E0,-2.896305561E0,1.770443439E0,-1.691236377E0
2.416854751E0,-7.460339665E-1,8.009471893E-1,-7.110551000E-1
2.426876751E0,1.430547714E0,-1.032228470E0,-1.191097736E0
2.438027751E0,1.684259295E0,-4.204364777E0,-1.256886959E0
2.446899751E0,1.680381060E0,-1.013752460E1,-3.850265503E0
2.456879751E0,1.073071241E0,-1.612389755E1,-5.197018147E0
2.466895751E0,-2.428982019E0,-1.594121361E1,-2.723632812E0
2.476919751E0,-6.003809452E0,-1.167660904E1,1.500117064E0
2.489907751E0,-8.396659851E0,-1.018235874E1,1.888394475E0
2.506839751E0,-1.304685402E1,-9.744785309E0,-2.505242109E0
2.516872751E0,-1.082216930E1,-1.091618824E1,-6.659647465E0
2.526910751E0,-1.551514149E0,-1.411884117E1,-2.310804367E0
2.537824751E0,4.621773720E0,-1.714823341E1,-1.636207700E0
2.546874751E0,5.181324959E0,-1.616140175E1,-6.298837066E-1
2.557104751E0,3.036448002E0,-1.231834698E1,1.733709574E-1
2.566889751E0,4.466292262E-1,-7.119433403E0,5.019575953E-1
2.576875751E0,-2.351158142E0,-1.449000359E0,5.393740535E-1
2.588029751E0,-3.941977501E0,3.459457397E0,2.391576767E-1
2.596803751E0,-4.309423447E0,6.398047924E0,7.738721371E-2
2.607866751E0,-4.588455200E0,8.210855484E0,2.290220261E-1
2.616894751E0,-5.269288063E0,9.044871330E0,3.829605579E-1
2.626894751E0,-5.829631329E0,8.798476219E0,7.743886709E-1
2.636954751E0,-6.067537308E0,8.082338333E0,1.608558774E0
2.646876751E0,-5.088584900E0,7.117726326E0,2.649420261E0
2.657909751E0,-4.720223427E0,6.207295418E0,2.746784210E0
2.666866751E0,-4.063066006E0,5.155813217E0,2.821656704E0
2.676926751E0,-3.438515902E0,4.396788597E0,3.417548656E0
2.686833751E0,-3.100214720E0,3.447361946E0,3.862585068E0
2.696877751E0,-3.075677872E0,2.268557549E0,3.599046469E0
2.707982751E0,-2.476156950E0,8.924188614E-1,3.247571945E0
2.716859751E0,-1.822839737E0,-7.711219788E-2,2.782915354E0
2.726939751E0,-1.530388594E0,-5.248069763E-2,2.229857445E0
2.737009751E0,-1.705526590E0,8.833951950E-1,1.584837556E0
2.746844751E0,-1.277345777E0,1.822732925E0,1.217440605E0
2.757532751E0,-2.112910450E-1,2.490142822E0,1.236949563E0
2.766867751E0,5.422224998E-1,3.062144756E0,1.200224638E0
2.776871751E0,1.354302168E0,3.621625900E0,1.186911583E0
2.786881751E0,1.903542757E0,4.200695515E0,9.645698071E-1
2.796829751E0,1.815765381E0,4.874975204E0,6.053829193E-1
2.807119751E0,1.817595959E0,5.425854206E0,4.821761847E-1
2.816871751E0,2.196589708E0,5.944433212E0,2.915525436E-1
2.826973751E0,2.447734118E0,6.457451820E0,-6.190969944E-1
2.836866751E0,1.967446804E0,6.852729321E0,-7.972592115E-1
2.847944751E0,1.441502333E0,6.890646458E0,3.265893459E-1
2.856861751E0,1.325189352E0,6.890393734E0,2.688116431E-1
2.866897751E0,1.092796564E0,6.860019684E0,7.083060741E-1
2.876867751E0,5.573472381E-1,6.453330040E0,1.614741802E0
2.886955751E0,4.789462090E-1,5.766939640E0,1.740566015E0
2.898091751E0,5.778774023E-1,4.428377151E0,1.934087753E0
2.906864751E0,8.255113363E-1,2.244317055E0,2.287740469E0
2.916869751E0,1.452049255E0,-5.052680969E-1,2.958556414E0
2.927053751E0,2.530855179E0,-4.367197990E0,3.883800030E0
2.936894751E0,3.879426003E0,-8.981451035E0,4.825035572E0
2.946820751E0,4.726968765E0,-1.298316002E1,4.863999367E0
2.956853751E0,3.245998859E0,-1.519130039E1,1.824958563E0
2.967061751E0,2.033958197E0,-1.519804192E1,-9.499422073E0
2.977036751E0,4.415493011E0,-1.358389664E1,-8.930473328E0
2.986906751E0,7.202244759E0,-1.155922985E1,8.188432455E-1
2.997607751E0,6.584060669E0,-7.570656776E0,3.865948439E0
3.006877751E0,5.160219669E0,-3.953222275E0,3.497379303E0
3.016922751E0,3.924425125E0,-1.190753937E0,2.569056034E0
3.026890751E0,3.350335360E0,4.531326294E-1,2.141643286E0
3.036947751E0,3.596418858E0,4.220895767E-1,1.963569760E0
3.046917751E0,4.336411476E0,-1.018304825E0,1.605330944E0
3.056956751E0,4.946558475E0,-2.745561600E0,1.173196316E0
3.066863751E0,4.868511200E0,-3.853513718E0,7.769067287E-1
3.077645751E0,4.341691971E0,-4.426420212E0,5.247474909E-1
3.088385751E0,3.689806223E0,-4.625560760E0,4.706131816E-1
3.096821751E0,3.087524652E0,-4.629692078E0,5.278103948E-1
3.106847751E0,2.476605415E0,-4.388401031E0,5.384458303E-1
3.116858751E0,1.910870075E0,-3.926303864E0,4.888479114E-1
3.126924751E0,1.396049023E0,-3.396255493E0,3.680886626E-1
3.136949751E0,8.469400406E-1,-2.842854500E0,2.332990766E-1
3.146828751E0,3.171641827E-1,-2.388323784E0,9.497311711E-2
3.156862751E0,-3.432350159E-1,-1.896744728E0,-1.755726337E-2
3.168023751E0,-9.911559820E-1,-1.306136131E0,-1.627647877E-1
3.176882751E0,-1.698528290E0,-6.314344406E-1,-2.293488681E-1
3.187149751E0,-2.398223400E0,1.193666458E-1,-1.351525635E-1
3.196875751E0,-2.939153194E0,8.405876160E-1,4.686698318E-2
3.206898751E0,-3.717438698E0,1.871028900E0,8.043840528E-2
3.216930751E0,-4.321376801E0,2.814348698E0,2.759295702E-2
3.226871751E0,-4.789911747E0,3.683446884E0,1.912963390E-2
3.237124751E0,-5.044579506E0,4.515729904E0,3.321838379E-2
3.246804751E0,-5.131928444E0,5.237022877E0,-4.339024425E-2
3.257018751E0,-5.165254593E0,5.857556820E0,-1.955903918E-1
3.266937751E0,-5.145635128E0,6.347126961E0,-2.534738183E-1
3.277853751E0,-5.255496979E0,6.807471275E0,-2.367307693E-1
3.287230751E0,-5.437516212E0,7.217799187E0,-2.085609138E-1
3.296846751E0,-5.598538876E0,7.587643623E0,-1.699041426E-1
3.306867751E0,-5.684998512E0,7.899556637E0,-4.508475959E-2
3.316876751E0,-5.385240555E0,7.956386566E0,2.157177925E-1
3.327491751E0,-4.849466324E0,7.798667431E0,7.849041820E-1
3.336980751E0,-4.341151237E0,7.231198311E0,1.087523460E0
3.346855751E0,-3.956265450E0,5.994175911E0,1.235325098E0
3.357222751E0,-3.556843281E0,4.547867775E0,8.945475817E-1
3.366821751E0,-3.917866945E0,2.776661873E0,2.356324494E-1
3.376907751E0,-5.545347214E0,1.511034966E0,-6.176064610E-1
3.386896751E0,-7.959491253E0,4.254226685E-1,-1.758407831E0
3.396817751E0,-1.082098103E1,-1.181434631E0,-3.167084694E0
3.406972751E0,-1.381188869E1,-5.399788857E0,-4.267841339E0
3.416835751E0,-1.218750763E1,-6.699625969E0,-2.443500280E0
3.428065751E0,-9.620327950E0,-7.904253006E0,-6.935335398E-1
3.436984751E0,-7.142263412E0,-8.541342735E0,1.221276522E-1
3.446836751E0,-2.784491301E0,-9.734164238E0,-4.170119762E-1
3.457666751E0,1.072055149E1,-1.585491276E1,-2.379430294E0
3.466869751E0,2.084511185E1,-2.291553497E1,-5.350964546E0
3.476971751E0,7.774475098E0,-1.452080917E1,-4.544164658E0
3.486829751E0,-2.367059708E0,-3.558668137E0,-3.795873642E0
3.496830751E0,-3.653192043E0,3.512810707E0,-9.546768188E0
3.508254751E0,-4.476184845E-1,3.665962696E0,-1.239471531E1
3.516957751E0,1.902474165E-1,3.048950195E0,-1.205479813E1
3.527008751E0,-8.519560099E-1,1.781086445E0,-1.052943039E1
3.536909751E0,-2.325969696E0,8.337125778E-1,-8.633457184E0
3.546910751E0,-4.006592274E0,1.097363949E0,-6.497845650E0
3.557936751E0,-5.287765503E0,2.392240524E0,-3.559918880E0
3.566900751E0,-5.615105152E0,3.808233738E0,-9.874315262E-1
3.576863751E0,-5.469054699E0,5.156325340E0,8.688008785E-1
3.586940751E0,-5.205339432E0,6.078523636E0,2.432796955E0
3.596864751E0,-4.850482941E0,6.212977409E0,3.727530956E0
3.606849751E0,-4.459477425E0,6.057082176E0,4.466490269E0
3.616877751E0,-4.063836098E0,5.708753586E0,5.007979870E0
3.626934751E0,-3.457499981E0,5.261971474E0,4.878353119E0
3.636899751E0,-2.864069939E0,4.638670921E0,4.689136028E0
3.646854751E0,-2.370931625E0,3.995455742E0,4.931885242E0
3.656850751E0,-2.044725895E0,3.390341759E0,4.902862549E0
3.666880751E0,-1.763582230E0,2.743268967E0,4.718105316E0
3.676930751E0,-1.379476786E0,2.098793983E0,4.275325775E0
3.686920751E0,-1.020387888E0,1.528036594E0,3.699993134E0
3.697824751E0,-4.703580141E-1,1.035419464E0,3.102020741E0
3.706897751E0,-1.619207859E-1,6.779603958E-1,2.675059795E0
3.716836751E0,9.517633915E-2,4.731225967E-1,2.518618345E0
3.728464751E0,4.589233398E-1,2.500476837E-1,2.360358953E0
3.736974751E0,7.027747631E-1,-1.626300812E-2,2.240076542E0
3.747679751E0,8.252475262E-1,-1.341762543E-1,2.193125486E0
3.757034751E0,6.784665585E-1,1.955461502E-1,2.264033318E0
3.766905751E0,4.311821461E-1,5.303087234E-1,2.305062056E0
3.776844751E0,4.118765593E-1,8.015794754E-1,2.635360718E0
3.786995751E0,3.014843464E-1,1.146824837E0,2.929561138E0
3.796802751E0,3.052759171E-2,1.655515194E0,3.082100868E0
3.806892751E0,-4.126405716E-1,2.215993404E0,2.893256664E0
3.820190751E0,-5.271536112E-1,2.655462265E0,2.613731861E0
3.836893751E0,-5.232754946E-1,2.547205448E0,2.134827614E0
3.847005751E0,-4.727393389E-1,2.164424896E0,1.770211220E0
3.856869751E0,-4.783508778E-1,1.460921288E0,1.800785065E0
3.866821751E0,-3.502535820E-1,4.135856628E-1,1.952052355E0
3.876893751E0,-3.452858925E-1,-8.557538986E-1,2.374530077E0
3.887973751E0,3.093214035E-1,-4.111844063E0,3.227911711E0
3.896866751E0,2.169511318E-1,-4.138867378E0,3.078569889E0
3.906886751E0,6.502606869E-1,-6.109269142E0,3.606815815E0
3.916901751E0,1.726617098E0,-8.147638321E0,4.161790848E0
3.927054751E0,2.857715845E0,-1.007888794E1,4.721138954E0
3.936932751E0,3.841339350E0,-1.089059544E1,4.959384441E0
3.946825751E0,3.737541199E0,-8.134921074E0,3.294931173E0
3.956877751E0,3.012245655E0,-5.520803452E0,2.265529156E0
3.966929751E0,2.931243420E0,-3.915859222E0,1.551711679E0
3.976852751E0,2.964303255E0,-3.229576111E0,1.346156240E0
3.987235751E0,3.139979601E0,-3.525123596E0,1.692742825E0
3.996869751E0,3.221859694E0,-4.232231140E0,1.912655711E0
4.007024751E0,2.991973162E0,-4.801507950E0,1.805331469E0
4.017092751E0,2.548297167E0,-4.947158813E0,1.462945461E0
4.026921751E0,2.108119488E0,-4.841623306E0,1.007649779E0
4.039584751E0,1.776531935E0,-4.542033195E0,5.418863297E-1
4.047960751E0,1.451119661E0,-4.009376526E0,1.035925150E-1
4.056882751E0,9.716780186E-1,-3.317078590E0,-3.113946915E-1
4.070359751E0,4.580304623E-1,-2.586072922E0,-6.833341718E-1
4.086887751E0,-7.532707453E-1,-1.022301674E0,-1.021948338E0
4.096851751E0,-1.110203505E0,-4.464311600E-1,-1.130854011E0
4.106859751E0,-1.501122236E0,2.899866104E-1,-1.113062382E0
4.116887751E0,-1.984192371E0,1.136898994E0,-1.147688985E0
4.126865751E0,-2.276798725E0,1.879972458E0,-1.303106308E0
4.139707751E0,-2.600799799E0,2.616346836E0,-1.536591887E0
4.156859751E0,-3.034388065E0,4.023888588E0,-1.681238770E0
4.166977751E0,-3.531019688E0,4.774024487E0,-2.046163321E0
4.176954751E0,-4.115474224E0,5.583035946E0,-2.319964409E0
4.187091751E0,-4.408791542E0,6.497901440E0,-2.777471542E0
4.196879751E0,-4.887649536E0,7.302984715E0,-3.304693699E0
4.207767751E0,-5.070221901E0,7.970844746E0,-3.925589561E0
4.217214751E0,-5.079353809E0,8.406311035E0,-4.458609104E0
4.227077751E0,-4.696525097E0,8.756600380E0,-4.814245224E0
4.237051751E0,-3.978580952E0,8.986775398E0,-5.621099949E0
4.246837751E0,-3.088092804E0,9.230180740E0,-8.404183388E0
4.256917751E0,-2.256108761E0,9.185703278E0,-7.723732471E0
4.267152751E0,-1.607373238E0,7.939632893E0,-5.293955803E0
4.276923751E0,-2.345541716E0,6.634104729E0,-3.693551302E0
4.293404751E0,-3.565016747E0,4.299381256E0,-3.300396442E0
4.306839751E0,-4.621878624E0,2.049570084E0,-4.159641743E0
4.316893751E0,-6.264383793E0,-5.599918365E-1,-5.296655178E0
4.326874751E0,-7.751588821E0,-3.771912575E0,-5.333734035E0
4.339058751E0,-8.986888885E0,-7.586577415E0,-5.311062336E0
4.347425751E0,-9.261844635E0,-1.238905811E1,-4.823226452E0
4.356897751E0,-5.561594963E0,-2.003192711E1,-2.739525080E0
4.366862751E0,6.591005802E0,-2.899045372E1,-1.369703174E0
4.377086751E0,1.279956818E1,-2.920218277E1,-1.696394682E0
4.387706751E0,6.724327087E0,-1.835891724E1,4.554879665E-2
4.396855751E0,-5.303123474E0,-5.660183907E0,1.251159787E0
4.407040751E0,-8.132465363E0,-8.101034164E-1,1.649801373E0
4.417329751E0,-7.619461536E0,7.850141525E-1,2.466982841E0
4.427624751E0,-7.281854153E0,1.097904205E0,2.853710651E0
4.437379751E0,-6.592404842E0,2.702035904E-1,2.830029964E0
4.448021751E0,-6.614474297E0,-1.031403542E0,3.540811062E0
4.457524751E0,-7.912134647E0,-1.557643890E0,4.223744869E0
4.466890751E0,-7.914362431E0,-1.676106453E0,4.462929726E0
4.476853751E0,-7.251219749E0,-1.071770668E0,6.005039215E0
4.487047751E0,-4.531842709E0,5.095214844E-1,6.118420601E0
4.496816751E0,-2.665060997E0,1.705045700E-1,5.537901402E0
4.507001751E0,-1.233591080E0,-1.061944962E-1,4.655517101E0
4.518596751E0,-4.312272966E-1,6.095886230E-3,3.942905188E0
4.526840751E0,-9.300184250E-2,3.187942505E-1,3.313402176E0
4.536987751E0,1.141961813E-1,5.814614296E-1,2.932101250E0
4.546856751E0,5.492226481E-1,7.184453011E-1,2.669636965E0
4.556869751E0,8.583930731E-1,9.121708870E-1,2.599904060E0
4.566846751E0,1.037730932E0,1.345079422E0,2.787286758E0
4.576875751E0,8.953573108E-1,2.022613049E0,2.851876974E0
4.586888751E0,7.907851338E-1,2.706620693E0,2.935115337E0
4.596833751E0,8.709769845E-1,3.356288910E0,3.017916441E0
4.607370751E0,9.525368810E-1,4.045999527E0,3.119285822E0
4.617026751E0,1.112775803E0,4.631537437E0,3.188964367E0
4.627870751E0,1.157333255E0,5.250098228E0,3.107471466E0
4.636959751E0,1.142373562E0,5.811578751E0,3.062332630E0
4.647444751E0,1.058222890E0,6.322995663E0,2.999676943E0
4.656884751E0,9.644237161E-1,6.758317471E0,2.919368982E0
4.672148751E0,9.361649752E-1,7.106370449E0,2.867572069E0
4.686854751E0,9.527066946E-1,7.502651215E0,2.719663382E0
4.696843751E0,9.149052501E-1,7.523413181E0,2.530919075E0
4.706998751E0,9.458838701E-1,7.436219215E0,2.090805531E0
4.717588751E0,1.147590160E0,7.225912094E0,2.160680532E0
4.726847751E0,1.097386956E0,6.839936256E0,1.983688593E0
4.736874751E0,1.358848810E0,5.606245518E0,1.456813335E0
4.746865751E0,2.035644531E0,3.401071072E0,1.161973953E0
4.756894751E0,3.220406055E0,1.032838821E-1,1.322572470E0
4.766847751E0,5.106517315E0,-3.924063683E0,2.402230024E0
4.776809751E0,6.905971527E0,-8.517344475E0,4.560558319E0
4.788669751E0,8.175926208E0,-1.270615005E1,5.812865734E0
4.796859751E0,8.670329094E0,-1.474361610E1,5.244242668E0
4.807646751E0,6.917058945E0,-1.414093971E1,3.839887857E0
4.816901751E0,5.935402393E0,-1.184294510E1,2.093525410E0
4.826899751E0,6.169668198E0,-8.987700462E0,2.047155857E0
4.836876751E0,5.719638348E0,-5.401016235E0,2.438705921E0
4.846846751E0,4.273513794E0,-2.291133881E0,1.449849844E0
4.856895751E0,3.680344582E0,-6.524095535E-1,7.770242691E-1
4.866888751E0,3.618916273E0,-3.622207642E-1,6.166980863E-1
4.876886751E0,3.900124073E0,-1.189808846E0,8.714953065E-1
4.886925751E0,4.106823444E0,-2.599924088E0,9.239917397E-1
4.897053751E0,3.816523552E0,-3.871284485E0,6.418617368E-1
4.907174751E0,3.206098080E0,-4.871032715E0,5.090513825E-1
4.916888751E0,2.576688290E0,-5.514186859E0,7.537578940E-1
4.927021751E0,1.938538551E0,-5.832375526E0,1.401167870E0
4.939517751E0,6.757035255E-1,-5.073076248E0,2.516337395E0
4.956900751E0,-1.440403461E-1,-4.234303474E0,2.736521721E0
4.966957751E0,-9.660933018E-1,-3.203100204E0,2.843294621E0
4.976825751E0,-1.803714871E0,-2.087055206E0,2.884966850E0
4.986897751E0,-2.668375731E0,-1.002664566E0,2.828530788E0
4.996867751E0,-3.251042366E0,2.194309235E-2,2.713631868E0
5.006901751E0,-3.770675659E0,1.030997276E0,2.449083567E0
5.016876751E0,-4.108382702E0,2.008742332E0,1.617497802E0
5.026877751E0,-4.004510880E0,3.773990631E0,1.164815426E0
5.036906751E0,-3.695049047E0,4.379182339E0,9.403128028E-1
5.046817751E0,-3.197171211E0,4.916114807E0,7.728338242E-1
5.056830751E0,-2.663996458E0,5.345907688E0,7.762631774E-1
5.067383751E0,-2.306135654E0,5.826498032E0,8.301853538E-1
5.076935751E0,-2.243434429E0,6.314910412E0,7.518442273E-1
5.086995751E0,-2.463323593E0,6.874604225E0,6.493337154E-1
5.096839751E0,-2.788231611E0,7.411603928E0,6.583073139E-1
5.107330751E0,-3.182446003E0,7.809274197E0,5.399217606E-1
5.116871751E0,-3.266297340E0,8.028923035E0,3.099777997E-1
5.126878751E0,-3.106677055E0,8.093121529E0,3.875380009E-2
5.136874751E0,-2.939203739E0,8.071336746E0,-2.867348790E-1
5.147768751E0,-2.928175211E0,7.858674526E0,-5.148288012E-1
5.157261751E0,-3.086992502E0,7.338243008E0,-7.022137046E-1
5.167049751E0,-3.475221634E0,6.433031082E0,-1.034502029E0
5.176877751E0,-4.030935764E0,5.066840172E0,-1.716553211E0
5.186890751E0,-4.636823177E0,2.873676777E0,-2.791038513E0
5.196914751E0,-5.694723606E0,4.341411591E-2,-3.880186558E0
5.206890751E0,-7.234393120E0,-3.053858757E0,-4.520609856E0
5.216867751E0,-9.003538132E0,-6.619656563E0,-4.436040878E0
5.226996751E0,-9.807948112E0,-1.118209171E1,-4.306987762E0
5.236861751E0,-9.123735428E0,-1.435381603E1,-3.162153006E0
5.246896751E0,-5.308129311E0,-1.723508263E1,-1.993806124E0
5.256878751E0,1.007237673E0,-1.784987450E1,-2.058354139E0
5.267192751E0,5.314024448E0,-1.873381233E1,-4.636394501E0
5.277088751E0,3.157381296E0,-1.414724445E1,-6.200251579E0
5.286884751E0,1.087211609E0,-8.572512627E0,-8.098792076E0
5.296850751E0,-2.185433805E-1,-3.552139282E0,-9.795518875E0
5.306858751E0,-6.211199760E-1,-1.082277298E0,-7.951851845E0
5.317021751E0,-1.103223443E0,-1.272447586E0,-6.496500969E0
5.327106751E0,-3.553279161E0,-5.124073029E-1,-4.116166592E0
5.336937751E0,-5.490358353E0,3.602414131E-1,-7.843656540E-1
5.347000751E0,-5.891413212E0,2.476406097E-1,1.551425457E0
5.358057751E0,-5.327941895E0,-1.195621490E-1,3.045794964E0
5.366880751E0,-4.602573395E0,5.098338127E-1,4.418057442E0
5.376884751E0,-3.540011883E0,1.538244724E0,5.079267502E0
5.386853751E0,-2.513364077E0,2.373334408E0,6.421685219E0
5.396853751E0,-1.382592797E0,2.671196461E0,6.853168964E0
5.406895751E0,-4.307318330E-1,2.585978031E0,6.008211613E0
5.416952751E0,8.218991756E-2,2.523877144E0,5.480129719E0
5.426870751E0,9.539104067E-3,2.554500580E0,5.375649452E0
5.436849751E0,9.467618167E-2,2.401561260E0,4.999174118E0
5.448260751E0,4.853630364E-1,2.055224419E0,4.202399254E0
5.456864751E0,6.346677542E-1,1.922067165E0,3.708013058E0
5.468432751E0,5.274439454E-1,2.177403927E0,3.627219200E0
5.476850751E0,2.408484668E-1,2.678130150E0,3.460255146E0
5.487151751E0,3.216553926E-1,3.159527302E0,3.443654537E0
5.496869751E0,5.200204849E-1,3.602589607E0,3.588578701E0
5.506859751E0,6.809273958E-1,3.974790573E0,3.705475330E0
5.518376751E0,8.766461015E-1,4.334448814E0,3.755244493E0
5.527006751E0,9.527800083E-1,4.720151901E0,3.844529867E0
5.536834751E0,1.040593028E0,4.992722988E0,3.894631863E0
5.546823751E0,1.109121561E0,5.112885475E0,3.864075661E0
5.562203751E0,1.161278486E0,4.878495216E0,3.910263062E0
5.576891751E0,9.130731225E-1,3.638439655E0,3.749180555E0
5.586817751E0,7.855132818E-1,2.325048923E0,3.540662289E0
5.596832751E0,6.672928333E-1,4.961566925E-1,3.360939980E0
5.607457751E0,6.988742948E-1,-2.079125404E0,3.109760523E0
5.616932751E0,9.552394152E-1,-5.542004585E0,3.168544769E0
5.626923751E0,1.392811775E0,-9.422860146E0,3.994353771E0
5.636870751E0,1.606108665E0,-1.276441002E1,5.298155785E0
5.647806751E0,1.838128090E0,-1.453218842E1,6.516686440E0
5.656852751E0,1.545921206E0,-1.344696140E1,5.885488510E0
5.668605751E0,1.004880905E0,-1.058922958E1,4.668057919E0
5.676811751E0,8.600496054E-1,-7.239239693E0,3.931753874E0
5.686868751E0,1.402354598E0,-4.662371635E0,3.258809090E0
5.696853751E0,9.609165192E-1,-2.333848953E0,2.491604090E0
5.706969751E0,6.492626667E-1,-5.250282288E-1,1.833602428E0
5.716863751E0,5.618631840E-1,8.431301117E-1,1.318629384E0
5.726953751E0,7.517257929E-1,1.573053360E0,1.009675026E0
5.736861751E0,1.041909933E0,1.730157852E0,7.521172762E-1
5.746943751E0,1.498553395E0,1.565723419E0,4.970365167E-1
5.756832751E0,1.873189330E0,1.471243858E0,4.699866176E-1
5.766966751E0,1.761365294E0,1.705594540E0,4.554138184E-1
5.776955751E0,1.336810231E0,2.167273045E0,5.147832036E-1
5.787042751E0,8.058145046E-1,2.675214291E0,6.444078684E-1
5.796840751E0,2.396301031E-1,3.178815365E0,7.973936796E-1
5.806876751E0,-2.780559063E-1,3.593150616E0,1.084482789E0
5.817043751E0,-8.896767497E-1,3.986786366E0,1.395678163E0
5.826962751E0,-1.597573161E0,4.475618839E0,1.651298881E0
5.836989751E0,-2.115169048E0,4.803783894E0,1.893167019E0
5.846918751E0,-2.372888088E0,5.018199444E0,2.155386448E0
5.856926751E0,-2.433625698E0,5.105634212E0,2.478136539E0
5.866914751E0,-2.589695930E0,5.145548344E0,2.792955399E0
5.876837751E0,-2.709823608E0,5.146079540E0,2.966362000E0
5.887002751E0,-2.684127331E0,5.029145718E0,3.032193899E0
5.896911751E0,-2.496570587E0,4.815103054E0,3.066731930E0
5.907107751E0,-2.490409613E0,4.510254860E0,3.109065533E0
5.916867751E0,-2.522047520E0,4.170541286E0,3.108407259E0
5.927074751E0,-2.588976383E0,3.722995758E0,3.099819660E0
5.936864751E0,-2.723096132E0,3.237809658E0,3.094145060E0
5.946855751E0,-2.951862335E0,2.710981369E0,3.101709127E0
5.956850751E0,-2.991389990E0,2.058530331E0,3.058915377E0
5.967239751E0,-2.926407814E0,1.394728661E0,2.911749125E0
5.977959751E0,-2.755000591E0,7.040376663E-1,2.647959471E0
5.987072751E0,-2.509835243E0,7.096958160E-2,2.280745983E0
5.996853751E0,-2.294036865E0,-5.335531235E-1,1.961002588E0
6.007017751E0,-2.082668543E0,-1.129206657E0,1.651396513E0
6.016878751E0,-1.886085510E0,-1.790280342E0,1.402203083E0
6.026845751E0,-1.661945105E0,-2.486477852E0,1.162693620E0
6.036834751E0,-1.348238111E0,-3.228656769E0,9.171259403E-1
6.046929751E0,-9.455367327E-1,-3.967612267E0,7.477917075E-1
6.056867751E0,-6.253584027E-1,-4.698919296E0,5.603793859E-1
6.067052751E0,-3.697697520E-1,-5.331528664E0,3.965367079E-1
6.076872751E0,-2.029553652E-1,-5.803078651E0,1.583119035E-1
6.086864751E0,-7.551062107E-2,-6.077600479E0,-4.597197473E-1
6.096829751E0,5.856911540E-1,-5.981745720E0,-9.883569479E-1
6.106968751E0,1.268555403E0,-5.828302383E0,-1.724791169E0
6.117980751E0,1.822358370E0,-5.826324463E0,-2.608940363E0
6.126835751E0,2.173020840E0,-5.873417854E0,-3.718242645E0
6.137340751E0,2.417441368E0,-5.872444153E0,-4.464814663E0
6.146950751E0,2.730196476E0,-5.882632256E0,-4.479960442E0
6.156846751E0,3.096293926E0,-5.833612442E0,-4.016780376E0
6.166875751E0,3.573981285E0,-5.751480103E0,-3.534310102E0
6.176893751E0,3.889531374E0,-5.519696236E0,-3.163980484E0
6.186843751E0,3.867951870E0,-4.761704445E0,-2.561820507E0
6.196871751E0,3.775118113E0,-3.709877968E0,-1.889540434E0
6.206812751E0,3.704025269E0,-2.686865807E0,-1.447064877E0
6.216885751E0,3.382452488E0,-1.532959938E0,-1.246784925E0
6.227207751E0,3.375838995E0,-7.005052567E-1,-1.361477852E0
6.236883751E0,3.226653099E0,1.890029907E-1,-1.309497118E0
6.247883751E0,2.986279726E0,9.932785034E-1,-1.047260404E0
6.256937751E0,2.762409449E0,1.571578026E0,-8.609808683E-1
6.267774751E0,2.453492880E0,1.925996780E0,-5.872834325E-1
6.276861751E0,2.112494469E0,1.991325378E0,-5.375409126E-1
6.286845751E0,1.810669661E0,1.750441551E0,-4.931234121E-1
6.296930751E0,1.563185096E0,1.158541679E0,-4.378489852E-1
6.306861751E0,1.301140785E0,2.214727402E-1,-3.429930806E-1
6.316870751E0,1.143657207E0,-9.763031006E-1,-1.927203834E-1
6.326952751E0,9.940739274E-1,-2.127093315E0,1.523079872E-1
6.336901751E0,7.511766553E-1,-2.967636108E0,6.212745905E-1
6.347007751E0,3.363125324E-1,-3.324992180E0,1.112189651E0
6.356860751E0,-9.024691582E-2,-3.187214851E0,1.636010647E0
6.366888751E0,-5.205906630E-1,-2.683714867E0,2.202373028E0
6.376920751E0,-1.036113262E0,-1.843853951E0,2.662915468E0
6.386936751E0,-1.449068069E0,-9.140386581E-1,3.029270411E0
6.396840751E0,-1.782465458E0,-4.010677338E-2,3.323469162E0
6.406979751E0,-2.075444698E0,7.025718689E-1,3.638763428E0
6.416860751E0,-2.257356405E0,1.394804955E0,3.909260750E0
6.427242751E0,-2.573106766E0,2.081417084E0,4.004658699E0
6.436904751E0,-2.952756166E0,2.655373573E0,3.981837273E0
6.447036751E0,-3.138312817E0,3.073818684E0,4.019375324E0
6.456867751E0,-3.208082199E0,3.318415165E0,3.911512375E0
6.466881751E0,-3.336684704E0,3.644856930E0,3.895698071E0
6.476855751E0,-3.499349117E0,3.969137192E0,3.911092758E0
6.486862751E0,-3.454829693E0,4.263195992E0,3.928524494E0
6.496854751E0,-3.220695019E0,4.442248821E0,3.924229860E0
6.507181751E0,-3.191636086E0,4.580345631E0,3.956866741E0
6.516915751E0,-3.186206579E0,4.652353764E0,4.010029793E0
6.527009751E0,-3.188673258E0,4.517605305E0,3.964249611E0
6.536843751E0,-2.968745232E0,4.033118725E0,3.570843697E0
6.547160751E0,-2.953740835E0,4.062658310E0,3.252232075E0
6.556903751E0,-3.198796749E0,4.290040970E0,3.252359390E0
6.567122751E0,-2.732699871E0,4.211276531E0,3.402109623E0
6.576853751E0,-2.360940456E0,4.123418331E0,3.617172718E0
6.586971751E0,-2.950125694E0,3.864047050E0,4.126954079E0
6.597054751E0,-2.852445602E0,2.552796841E0,3.365597248E0
6.606918751E0,-2.241440058E0,1.110105515E0,1.809329748E0
6.617163751E0,-3.848550320E-1,-1.110529900E0,2.066659927E-1
6.627399751E0,4.427694082E-1,-1.536107063E0,1.064438820E0
6.636886751E0,1.090139151E0,-1.748917580E0,1.969510078E0
6.646889751E0,1.613759398E0,-1.876696587E0,2.551371813E0
6.656856751E0,2.044427395E0,-2.006322861E0,3.076942444E0
6.666980751E0,2.445034981E0,-1.971507072E0,3.475570202E0
6.677056751E0,3.034555197E0,-1.921590805E0,3.434599638E0
6.687069751E0,3.528439522E0,-1.785578728E0,3.152639151E0
6.696879751E0,4.205941200E0,-1.669449806E0,2.072681904E0
6.707067751E0,4.534880638E0,-1.504246712E0,9.742465019E-1
6.716910751E0,4.294206619E0,-1.263627052E0,-1.867504120E-1
6.727122751E0,4.074899673E0,-1.298418045E0,-1.427925110E0
6.736953751E0,4.637378216E0,-1.843447685E0,-3.848250389E0
6.746894751E0,4.927259445E0,-2.347055435E0,-5.433259487E0
6.756910751E0,1.703729033E0,-2.514325142E0,-1.750349045E0
6.767297751E0,-2.268997669E0,-3.191323280E0,8.624486923E-1
6.776909751E0,-2.947441578E0,-4.071919441E0,-1.943402290E0
6.794475751E0,-4.005997181E-1,-5.456303596E0,3.702895164E0
6.806955751E0,-3.494024277E-1,-5.609008789E0,5.647631168E0
6.817099751E0,-4.923770428E-1,-6.423410416E0,5.447004318E0
6.826858751E0,-6.291898489E-1,-7.017254829E0,5.126484871E0
6.836972751E0,-1.045306087E0,-7.095492363E0,4.416470528E0
6.847364751E0,-1.776645184E0,-6.208128929E0,2.717200518E0
6.856940751E0,-2.555757999E0,-5.239572525E0,1.050412893E0
6.866945751E0,-2.515724897E0,-4.588687897E0,1.285202026E0
6.876955751E0,-1.823029637E0,-4.224573135E0,3.288950920E0
6.886911751E0,-1.734324336E0,-3.339139938E0,3.444387913E0
6.896831751E0,-1.813556552E0,-2.397050858E0,3.300909519E0
6.906924751E0,-2.219941139E0,-1.587502480E0,3.012885332E0
6.916831751E0,-2.476544857E0,-1.269385338E0,2.906549931E0
6.927029751E0,-2.775182009E0,-1.304194450E0,3.261013985E0
6.936905751E0,-3.056162357E0,-1.410070419E0,3.956415176E0
6.946924751E0,-3.148211956E0,-1.587704659E0,4.641109943E0
6.957505751E0,-2.981701374E0,-1.393052101E0,5.369248867E0
6.966851751E0,-3.065965652E0,-5.929975510E-1,5.763775826E0
6.976863751E0,-2.947357178E0,1.912412643E-1,5.771554947E0
6.986878751E0,-2.353834152E0,7.401905060E-1,5.524158001E0
6.996858751E0,-1.869748831E0,1.369392395E0,5.262887955E0
7.007029751E0,-1.436274648E0,1.951540947E0,4.751469135E0
7.017215751E0,-1.106621504E0,2.485041142E0,4.170728683E0
7.026958751E0,-8.647843599E-1,2.939934254E0,3.601331949E0
7.036853751E0,-6.174368858E-1,3.348899841E0,2.978636742E0
7.046879751E0,-3.380634785E-1,3.708344460E0,2.441860676E0
7.056851751E0,-4.077738523E-2,4.179503441E0,1.973371267E0
7.066829751E0,3.264671564E-2,4.694074631E0,1.541376114E0
7.076902751E0,1.752570271E-2,5.089061737E0,1.182386398E0
7.086843751E0,2.066395581E-1,5.315434456E0,9.620862007E-1
7.096864751E0,4.015089571E-1,5.350605011E0,7.779080868E-1
7.106856751E0,3.591802418E-1,5.442007065E0,7.110308409E-1
7.116833751E0,4.637164176E-1,5.317271233E0,6.703370214E-1
7.127366751E0,4.620064199E-1,5.103219986E0,6.239540577E-1
7.136986751E0,5.162783861E-1,4.711304188E0,6.155471802E-1
7.146920751E0,6.279752851E-1,4.164311409E0,5.000345111E-1
7.156960751E0,6.475792527E-1,2.865957260E0,6.514616013E-1
7.166923751E0,6.715750694E-1,2.049191952E0,7.351303697E-1
7.176893751E0,7.587582469E-1,1.154827118E0,8.584396839E-1
7.187103751E0,9.042507410E-1,1.982841492E-1,1.002768755E0
7.196890751E0,1.148957849E0,-8.002901077E-1,1.142005920E0
7.206905751E0,1.511017799E0,-1.770213127E0,1.263199210E0
7.216908751E0,1.906553149E0,-2.624210358E0,1.174263716E0
7.226957751E0,2.154515266E0,-3.240944862E0,8.284148574E-1
7.236940751E0,2.239272118E0,-3.581748962E0,3.634508848E-1
7.246898751E0,2.406919956E0,-3.717944145E0,-5.520457029E-1
7.256920751E0,2.756278038E0,-3.598859787E0,-2.107354641E0
7.266934751E0,2.588052750E0,-3.670702934E0,-3.195002794E0
7.276879751E0,2.199357986E0,-3.818131447E0,-4.164218903E0
7.286904751E0,2.297405720E0,-3.717370987E0,-5.026055336E0
7.296853751E0,2.595148563E0,-3.407681465E0,-5.236276627E0
7.307113751E0,2.698236465E0,-2.760859489E0,-4.712480068E0
7.316845751E0,2.445628405E0,-1.896554947E0,-3.407154322E0
7.326878751E0,2.145744324E0,-1.205365181E0,-2.077771902E0
7.336880751E0,1.935720205E0,-9.348039627E-1,-1.046364546E0
7.346888751E0,1.885759711E0,-1.107501030E0,-3.953180313E-1
7.356858751E0,1.989863873E0,-1.796374321E0,4.035851359E-2
7.366861751E0,2.181967020E0,-2.960493088E0,3.663040996E-1
7.376871751E0,2.536814213E0,-4.146057129E0,8.155423403E-1
7.386936751E0,2.745968103E0,-5.028710365E0,1.370649934E0
7.396869751E0,2.733614922E0,-5.522427559E0,1.813547730E0
7.406980751E0,2.480263948E0,-5.635683060E0,2.004086018E0
7.416868751E0,1.982861042E0,-5.307692528E0,1.939033031E0
7.427116751E0,1.327746749E0,-4.557766914E0,1.685019732E0
7.437402751E0,6.778934598E-1,-3.504495621E0,1.362600803E0
7.447224751E0,1.268184483E-1,-2.340682983E0,1.177784204E0
7.456891751E0,-4.069450498E-1,-1.268775940E0,1.170061588E0
7.466985751E0,-1.060197115E0,-3.332309723E-1,1.369937420E0
7.476864751E0,-1.628834605E0,2.622985840E-1,1.697375536E0
7.486862751E0,-2.050340652E0,5.462818146E-1,2.026122093E0
7.496903751E0,-2.257034302E0,5.952730179E-1,2.297298193E0
7.506917751E0,-2.325523376E0,3.742094040E-1,2.627816200E0
7.517098751E0,-2.037809134E0,-1.063928604E-1,2.880435467E0
7.526857751E0,-1.727334142E0,-6.794891357E-1,3.105071545E0
7.536868751E0,-1.710011482E0,-1.061636925E0,3.207474709E0
7.546885751E0,-1.943559289E0,-1.138243675E0,3.146733761E0
7.556854751E0,-2.326399565E0,-8.433647156E-1,3.115352154E0
7.566879751E0,-2.362709045E0,-4.186353683E-1,3.094469786E0
7.576872751E0,-2.072976589E0,1.728296280E-1,3.086167812E0
7.586936751E0,-1.635367751E0,9.254770279E-1,3.049301386E0
7.596844751E0,-1.147475839E0,1.687560558E0,3.025584698E0
7.606873751E0,-7.271148562E-1,2.373745441E0,3.035619497E0
7.616855751E0,-4.353206158E-1,2.858433247E0,2.909770489E0
7.626889751E0,4.973471761E-1,2.830350399E0,2.488584518E0
7.636877751E0,2.344146371E-1,3.326054573E0,1.984072924E0
7.646848751E0,-2.598261237E-1,3.925345898E0,1.730071783E0
7.657052751E0,-1.694063187E0,5.252052307E0,1.948557377E0
7.666850751E0,-1.768028736E0,5.695147514E0,2.285675287E0
7.676895751E0,-1.359720707E0,5.686714649E0,2.500587463E0
7.686862751E0,-3.160702586E-1,5.101429462E0,2.185049057E0
7.696832751E0,2.065399289E-1,4.134671688E0,4.066438675E-1
7.707921751E0,-4.728603959E-1,4.116636276E0,5.330839157E-1
7.717093751E0,-7.040888071E-1,3.938673973E0,4.717988968E-1
7.727575751E0,-1.914471984E0,4.843914032E0,2.684750080E0
7.736909751E0,-2.121644735E0,4.332549572E0,3.883605480E0
7.747771751E0,-2.331964970E0,3.533447742E0,4.812750816E0
7.756886751E0,-1.909072518E0,2.397689342E0,6.025640011E0
7.768733751E0,-1.064288139E0,9.647884369E-1,6.662522316E0
7.776846751E0,-1.977689266E-1,-7.259836197E-1,7.359548569E0
7.786841751E0,6.486173868E-1,-2.449368477E0,7.736672878E0
7.796889751E0,1.334202290E0,-3.583098412E0,6.899084091E0
7.806851751E0,1.731592178E0,-4.241554260E0,5.282650948E0
7.816859751E0,2.316017628E0,-4.938179016E0,3.978155136E0
7.826919751E0,2.912582397E0,-5.061917305E0,3.115061998E0
7.836846751E0,3.043979168E0,-4.113154411E0,1.854579210E0
7.846825751E0,2.877483845E0,-2.634222984E0,4.513373375E-1
7.856790751E0,2.682260513E0,-1.487094879E0,-6.835939884E-1
7.867228751E0,2.833001137E0,-9.968938828E-1,-1.050358057E0
7.876886751E0,2.819894314E0,-1.128676414E0,-3.746294975E-1
7.886967751E0,3.113395929E0,-1.028455734E0,-4.806263447E-1
7.896790751E0,3.356291533E0,-9.058895111E-1,-9.715325832E-1
7.906864751E0,3.227862835E0,-1.613936424E0,1.509285808E0
7.916873751E0,2.725944042E0,-3.310685158E0,3.450255632E0
7.926874751E0,2.547454596E0,-5.182785988E0,4.044254303E0
7.938036751E0,2.575257301E0,-6.079932213E0,3.826029301E0
7.946839751E0,2.273726940E0,-6.082969666E0,3.334773540E0
7.956864751E0,1.839007854E0,-5.237943649E0,2.345532179E0
7.966930751E0,1.420954227E0,-3.807495117E0,4.208941460E-1
7.976817751E0,9.086477757E-1,-2.233187675E0,-1.614627838E0
7.987096751E0,1.143388271E0,-1.619235992E0,-1.749748468E0
7.996914751E0,1.677980065E0,-1.621648788E0,-6.524645090E-1
8.006883751E0,1.831314325E0,-1.552283287E0,8.608162403E-1
8.016931751E0,1.547384024E0,-1.387526512E0,1.502834439E0
8.026931751E0,1.282151937E0,-1.516766548E0,2.159129620E0
8.036837751E0,1.311460137E0,-1.889926910E0,3.117250443E0
8.046953751E0,1.217851043E0,-1.971766472E0,3.736334801E0
8.056821751E0,5.565528274E-1,-1.666753769E0,3.864239693E0
8.066970751E0,-2.900236845E-1,-1.409142494E0,4.017753124E0
8.076894751E0,-1.341200113E0,-1.086763382E0,4.051251411E0
8.086989751E0,-2.193199158E0,-8.948907852E-1,3.987999916E0
8.096838751E0,-2.419101715E0,-7.841176987E-1,4.010683060E0
8.107001751E0,-2.692072868E0,-5.313053131E-1,4.008960724E0
8.116978751E0,-2.716760397E0,-1.542224884E-1,3.869209528E0
8.126858751E0,-2.567036152E0,3.335533142E-1,3.646666765E0
8.136861751E0,-2.328601599E0,8.825769424E-1,3.287023544E0
8.146840751E0,-2.036704302E0,1.486805916E0,2.843779564E0
8.156923751E0,-1.835333347E0,2.193018913E0,2.361195326E0
8.166871751E0,-1.699016333E0,3.022127628E0,2.001521826E0
8.176828751E0,-1.506671786E0,3.750167370E0,1.527535439E0
8.186880751E0,-1.421460509E0,4.483209133E0,1.191910505E0
8.196875751E0,-1.298854351E0,4.970329285E0,9.175497890E-1
8.206946751E0,-1.048084259E0,5.168583870E0,7.086812258E-1
8.216910751E0,-7.927370667E-1,5.285217762E0,5.888761282E-1
8.227857751E0,-4.741825759E-1,5.127335548E0,5.325598121E-1
8.236856751E0,-2.795259655E-1,4.876789093E0,5.279275775E-1
8.247388751E0,-1.365957558E-1,4.559763908E0,4.890981913E-1
8.256857751E0,1.155605614E-1,4.143741131E0,4.391809702E-1
8.267673751E0,3.994803727E-1,3.671319962E0,3.310160041E-1
8.276906751E0,6.478992701E-1,3.121512890E0,1.824529767E-1
8.287138751E0,8.966542482E-1,2.525722980E0,3.734761477E-2
8.296915751E0,1.188688993E0,1.772552013E0,-7.896637917E-2
8.307204751E0,1.485505462E0,8.316392899E-1,-1.514229178E-1
8.316833751E0,1.866921186E0,-3.020925522E-1,-2.002420425E-1
8.326856751E0,2.327514887E0,-1.526317596E0,-2.166620493E-1
8.336875751E0,2.818764210E0,-2.718465805E0,-2.516212463E-1
8.346909751E0,3.123768806E0,-3.582128525E0,-4.661065340E-1
8.356896751E0,3.341517210E0,-4.045962334E0,-9.309300780E-1
8.367113751E0,3.371508598E0,-4.066095352E0,-1.697812557E0
8.376851751E0,3.168889284E0,-3.607052803E0,-2.519057751E0
8.386877751E0,3.061867714E0,-2.994167328E0,-3.184203386E0
8.397123751E0,3.069774151E0,-2.442421913E0,-3.777584076E0
8.406865751E0,3.150603533E0,-2.084926605E0,-4.251994133E0
8.420537751E0,3.219659805E0,-2.031206131E0,-4.269558907E0
8.436920751E0,3.168813229E0,-2.429561615E0,-2.638108730E0
8.447970751E0,3.035597801E0,-2.549401283E0,-1.751601577E0
8.456867751E0,2.958194733E0,-2.595331192E0,-1.076930642E0
8.466811751E0,2.772752523E0,-2.625890732E0,-5.889341831E-1
8.476866751E0,2.579233170E0,-2.825306892E0,-2.373460531E-1
8.486916751E0,2.366146326E0,-3.088161469E0,-4.452347755E-3
8.496848751E0,2.204411983E0,-3.352359772E0,1.765027046E-1
8.506868751E0,2.111957073E0,-3.522147179E0,4.558027983E-1
8.516810751E0,2.145493507E0,-3.697561264E0,7.273278236E-1
8.526897751E0,2.274534941E0,-3.934925079E0,9.483344555E-1
8.536800751E0,2.027359247E0,-3.871938705E0,1.007761955E0
8.546913751E0,1.602778196E0,-3.634818077E0,1.021912932E0
8.556887751E0,8.493211865E-1,-3.047446251E0,9.572576284E-1
8.566855751E0,2.305839509E-1,-2.366477966E0,8.856673241E-1
8.576929751E0,-2.990748584E-1,-1.680759430E0,8.958178759E-1
8.586857751E0,-5.325180292E-1,-1.093911171E0,8.222792149E-1
8.596875751E0,-5.011357665E-1,-6.557321548E-1,5.953553319E-1
8.606944751E0,-4.038277864E-1,-2.963285446E-1,4.836570621E-1
8.616858751E0,-2.135477662E-1,-5.600357056E-2,4.861177206E-1
8.626965751E0,-2.503610849E-1,1.503095627E-1,5.122839212E-1
8.637191751E0,-3.886386454E-1,2.647027969E-1,4.266920090E-1
8.646865751E0,-7.913032174E-1,3.581914902E-1,3.738554120E-1
8.656861751E0,-1.134177327E0,4.277887344E-1,3.044599891E-1
8.666865751E0,-1.700093508E0,5.090951920E-1,2.641016245E-1
8.676992751E0,-2.259718180E0,3.955726624E-1,2.851123810E-1
8.686948751E0,-2.353527069E0,1.041002274E-1,2.657413483E-1
8.696842751E0,-1.909401178E0,-1.033620834E-1,2.375292778E-1
8.706985751E0,-1.286917686E0,1.609392166E-1,2.310886681E-1
8.716984751E0,-1.233007669E0,6.860713959E-1,2.760733962E-1
8.727084751E0,-8.869338036E-1,6.231966019E-1,2.986334264E-1
8.736861751E0,1.894467771E-1,9.517669678E-2,2.368924022E-1
8.746878751E0,5.254933834E-1,-7.751464844E-2,-6.722688675E-2
8.756908751E0,2.103157938E-1,8.098812103E-1,-4.888572693E-1
8.766875751E0,-4.761842787E-1,2.307195187E0,-9.857407808E-1
8.776860751E0,-2.113891840E0,5.067045689E0,-5.830311775E-1
8.786882751E0,-2.008159161E0,4.914244652E0,-2.926375866E-1
8.796856751E0,-2.248353958E0,4.802202702E0,-1.782963276E-1
8.806911751E0,-2.808010817E0,5.458801270E0,1.005656481E0
8.816910751E0,-2.289071560E0,5.039942265E0,1.906014204E0
8.827018751E0,-1.738854885E0,4.114748001E0,2.351715088E0
8.836926751E0,-1.497125506E0,3.918454170E0,3.450952530E0
8.846992751E0,-1.062063456E0,3.749355793E0,4.678111553E0
8.856888751E0,-2.855329514E-1,3.369345665E0,6.023140430E0
8.866944751E0,1.070379019E-1,3.014871120E0,7.024281025E0
8.876842751E0,8.510635495E-1,1.513308525E0,6.896538734E0
8.887207751E0,1.100424290E0,8.990478516E-2,6.496999264E0
8.896956751E0,1.695512295E0,-1.102343559E0,4.998236656E0
8.906897751E0,2.430202007E0,-1.847826958E0,3.183595657E0
8.916895751E0,2.689946651E0,-2.147890091E0,2.074476719E0
8.927925751E0,2.706633806E0,-2.289901733E0,1.804759264E0
8.936970751E0,2.627954960E0,-2.211614609E0,2.388250589E0
8.947684751E0,2.598221064E0,-2.138568878E0,2.891792536E0
8.956876751E0,3.092323065E0,-2.300400734E0,2.749170780E0
8.966944751E0,3.545868158E0,-2.307648659E0,2.278274059E0
8.978747751E0,3.439332485E0,-2.020437241E0,1.838880539E0
8.986990751E0,3.260189533E0,-1.856028557E0,1.187438250E0
8.996886751E0,3.135724545E0,-1.816315651E0,1.443040371E-1
9.006920751E0,3.019048691E0,-1.793251991E0,-1.340525627E0
9.017071751E0,3.062552929E0,-1.559087753E0,-4.456531525E0
9.026846751E0,2.729945183E0,-1.114966393E0,-7.810677528E0
9.036885751E0,1.620740891E0,-2.093567848E0,-3.105718851E0
9.046933751E0,1.160041571E0,-4.118988037E0,3.284001827E0
9.056903751E0,1.041817307E0,-4.379343033E0,4.991904736E0
9.066934751E0,1.247893453E0,-4.277345657E0,5.026182175E0
9.076857751E0,1.749508381E0,-4.077027321E0,3.575915813E0
9.086879751E0,1.794118643E0,-3.685173035E0,9.472109079E-1
9.096862751E0,2.006144524E0,-3.499589920E0,-9.823029041E-1
9.106860751E0,2.497184038E0,-3.665412903E0,-6.556354761E-1
9.116850751E0,2.542608738E0,-3.559167862E0,4.744617939E-1
9.126843751E0,2.283136368E0,-2.830867767E0,1.089886189E0
9.136998751E0,2.087658882E0,-1.873291969E0,1.137015820E0
9.147048751E0,2.067404032E0,-1.064029694E0,1.086036921E0
9.156837751E0,2.149070978E0,-6.158962250E-1,1.359596252E0
9.166943751E0,2.216472626E0,-3.062028885E-1,1.653314471E0
9.176883751E0,2.210117579E0,-2.473058701E-1,1.586892366E0
9.186847751E0,2.005035162E0,-4.123020172E-1,1.669676304E0
9.196848751E0,1.784235239E0,-7.603940964E-1,1.813051462E0
9.207030751E0,1.247190595E0,-1.137069702E0,2.155072689E0
9.216897751E0,4.682808518E-1,-1.477279663E0,2.632267714E0
9.226877751E0,-1.735955179E-1,-1.701175690E0,2.897399902E0
9.236971751E0,-8.054923415E-1,-1.896583557E0,3.028303385E0
9.246963751E0,-1.215457678E0,-1.911746979E0,3.078982115E0
9.257069751E0,-1.440257788E0,-1.738332748E0,3.030212879E0
9.266881751E0,-1.341103077E0,-1.429612160E0,2.851120949E0
9.276872751E0,-1.190986395E0,-9.203920364E-1,2.656099796E0
9.286853751E0,-1.057219386E0,-2.523593903E-1,2.195077896E0
9.296889751E0,-1.147429347E0,6.773042679E-1,1.726256371E0
9.306955751E0,-1.548647881E0,2.517180920E0,1.067980289E0
9.316852751E0,-1.518861294E0,3.178062916E0,8.074406981E-1
9.326998751E0,-1.388575315E0,3.677832127E0,6.216162443E-1
9.336861751E0,-1.118388414E0,4.079024792E0,4.637905955E-1
9.347012751E0,-8.414124250E-1,4.460548878E0,3.482084870E-1
9.356871751E0,-5.792727470E-1,4.771526814E0,2.359213829E-1
9.366938751E0,-3.076578379E-1,5.021527290E0,1.234269142E-1
9.376896751E0,-1.353290975E-1,5.284241676E0,9.399294853E-3
9.386885751E0,-5.624707788E-3,5.446904182E0,-1.611222029E-1
9.396856751E0,5.567176640E-2,5.559691429E0,-3.876258731E-1
9.406979751E0,1.378599256E-1,5.546948910E0,-6.416710615E-1
9.416848751E0,2.542596459E-1,5.540529251E0,-8.698216081E-1
9.426969751E0,3.795422912E-1,5.443182468E0,-1.068852186E0
9.436875751E0,3.484795392E-1,5.259630203E0,-1.340197325E0
9.446876751E0,5.143846273E-1,4.839945316E0,-1.540188193E0
9.456879751E0,8.559855819E-1,4.085329533E0,-1.621384382E0
9.467034751E0,1.355793715E0,2.960441113E0,-1.579846978E0
9.476899751E0,1.891018987E0,1.627961159E0,-1.551868081E0
9.486934751E0,2.397869825E0,2.117366791E-1,-1.483449697E0
9.496917751E0,2.962581635E0,-1.289209366E0,-1.382560968E0
9.508363751E0,3.532322168E0,-2.722204208E0,-1.412144899E0
9.516908751E0,3.807573080E0,-3.680189133E0,-1.528705478E0
9.527327751E0,3.802750587E0,-4.266137123E0,-2.036422729E0
9.536894751E0,4.120678902E0,-4.462155342E0,-2.491368294E0
9.547521751E0,4.333083153E0,-4.473266602E0,-3.088432789E0
9.556922751E0,4.273589611E0,-3.593756676E0,-3.871972084E0
9.566888751E0,4.198478699E0,-2.860196114E0,-4.800622940E0
9.576913751E0,4.132927418E0,-2.672828674E0,-5.529736519E0
9.586871751E0,3.878091812E0,-2.796031952E0,-5.555768967E0
9.596854751E0,3.466098309E0,-2.993873596E0,-5.106390953E0
9.606850751E0,3.041090488E0,-3.168020248E0,-4.447180748E0
9.616849751E0,2.568460464E0,-3.162807465E0,-3.599141598E0
9.627106751E0,2.225866318E0,-3.128615379E0,-2.778597593E0
9.636871751E0,2.092374086E0,-3.304958344E0,-2.168924570E0
9.646982751E0,2.081503630E0,-3.660929680E0,-1.524115801E0
9.656866751E0,2.008873463E0,-4.060563087E0,-8.779274225E-1
9.667064751E0,1.977749705E0,-4.524559975E0,-2.410024405E-1
9.676905751E0,1.996642351E0,-5.087788582E0,4.181075096E-1
9.687048751E0,1.969739199E0,-5.571764946E0,1.115798473E0
9.696845751E0,1.858656526E0,-5.627501488E0,1.721546531E0
9.707001751E0,1.434449792E0,-5.065333366E0,2.057020664E0
9.716918751E0,7.435772419E-1,-4.040263176E0,2.056122780E0
9.726896751E0,2.262486666E-1,-2.888992310E0,1.787857533E0
9.736895751E0,-2.521398067E-1,-1.826510429E0,1.460115790E0
9.747129751E0,-5.540732145E-1,-1.084643364E0,1.180582523E0
9.756894751E0,-6.234368086E-1,-7.015514374E-1,1.011237144E0
9.766869751E0,-6.104660630E-1,-5.089960098E-1,8.917542696E-1
9.776892751E0,-4.893037975E-1,-3.237066269E-1,7.376760244E-1
9.787185751E0,-3.887995780E-1,-1.346950531E-1,6.039714813E-1
9.796866751E0,-9.653340280E-2,6.888198853E-2,4.822026491E-1
9.806872751E0,1.059526280E-1,2.740488052E-1,4.193161726E-1
9.816938751E0,3.719367087E-2,5.716285706E-1,3.377137184E-1
9.827174751E0,3.823609650E-2,1.025806427E0,-1.332906485E-1
9.836963751E0,-4.314862192E-3,1.035472870E0,-2.457848191E-1
9.846859751E0,-1.766354144E-1,1.026762962E0,-2.558341622E-1
9.857378751E0,-1.844543666E-1,1.310602188E0,-2.679274678E-1
9.867083751E0,-1.857930571E-1,1.820518017E0,-2.971305549E-1
9.876839751E0,-8.184657991E-2,2.198289394E0,-2.031935006E-1
9.886888751E0,6.240214705E-1,2.097238541E0,-2.558402419E-1
9.896846751E0,1.474962831E0,1.507685661E0,-7.984381318E-1
9.907053751E0,1.900672913E0,1.067273140E0,-1.577961206E0
9.917052751E0,1.021663189E0,1.826141357E0,-1.895060778E0
9.926873751E0,-4.122233987E-1,3.240642548E0,-1.927686095E0
9.936843751E0,-1.258806586E0,4.264874935E0,-1.589986205E0
9.946847751E0,-1.107251406E0,3.785962105E0,-1.525979638E0
9.956891751E0,-1.214982510E0,4.044246674E0,-9.904803038E-1
9.967224751E0,-1.488257527E0,4.466451645E0,3.384034634E-1
9.976839751E0,-6.569013000E-1,3.724446297E0,4.955735207E-1
9.988811751E0,-1.336880475E-1,3.030490398E0,2.320075035E-2
9.996880751E0,-4.463944435E-1,4.051544189E0,1.685188293E0
1.000684775E1,-3.182170391E-1,4.071082592E0,3.116784334E0
1.001685975E1,-9.452244043E-1,3.485560417E0,4.523200989E0
1.002689875E1,-7.701704502E-1,2.557862282E0,5.233423233E0
1.003808075E1,-5.236582756E-1,1.523512363E0,5.152536869E0
1.004689275E1,-2.785559297E-1,3.722715378E-1,4.912150860E0
1.005683475E1,1.086367488E0,-6.920995712E-1,3.874055386E0
1.006691675E1,1.638830662E0,-8.472843170E-1,2.940179110E0
1.007687975E1,2.068725824E0,-8.707447052E-1,1.415319920E0
1.008702875E1,2.407456636E0,-4.839572906E-1,9.828963280E-1
1.009683275E1,2.726774693E0,-1.006574631E-1,1.672589302E0
1.010706875E1,2.937605619E0,2.899360657E-2,2.608091116E0
1.011686375E1,3.001005888E0,1.261749268E-1,3.242537975E0
1.012693375E1,2.966657400E0,1.033325195E-1,3.446471214E0
1.013687275E1,2.725052357E0,2.738285065E-2,3.504347324E0
1.014688575E1,2.328734875E0,-3.537273407E-2,3.465755224E0
1.015684875E1,1.994748831E0,-6.277370453E-2,3.421258926E0
1.016699375E1,1.804031610E0,-2.346458435E-1,3.029890776E0
1.017683475E1,1.976426005E0,-4.940509796E-1,2.247403145E0
1.018693375E1,2.039406300E0,-8.289604187E-1,1.293459892E0
1.019683475E1,2.295884848E0,-1.202183723E0,5.045151711E-2
1.020683275E1,2.683070660E0,-1.631662369E0,-2.553582907E0
1.021682875E1,2.994750023E0,-1.572799683E0,-7.734338760E0
1.022687575E1,1.654501557E0,-2.284291267E0,-7.603880882E0
1.023690975E1,1.274292767E-1,-5.565193176E0,4.652707577E-1
1.024684375E1,-1.228978336E-1,-7.425360680E0,3.494801283E0
1.025682575E1,3.446514010E-1,-7.729088783E0,3.265466690E0
1.026687775E1,1.237833619E0,-7.529663086E0,1.913768291E0
1.027697175E1,2.228974581E0,-6.620271683E0,-6.011247635E-2
1.028698375E1,2.082355738E0,-5.292477608E0,-2.556329250E0
1.029681075E1,1.755633354E0,-4.395080566E0,-2.498942614E0
1.030690375E1,1.582978725E0,-3.888031006E0,-7.269511223E-1
1.031701275E1,1.630935192E0,-2.960578918E0,7.036405802E-1
1.032687675E1,1.776155472E0,-1.739834785E0,1.255897641E0
1.033687575E1,1.986489296E0,-6.251096725E-1,1.419145107E0
1.034688375E1,2.106792927E0,5.542087555E-2,1.471858263E0
1.035688375E1,2.188377857E0,4.667024612E-1,1.386178493E0
1.036683075E1,2.117997885E0,6.387662888E-1,1.279749990E0
1.037683975E1,1.508089542E0,2.713317871E-1,1.712543249E0
1.038685975E1,9.880840778E-1,8.137512207E-2,1.726613164E0
1.039697875E1,5.947732925E-1,-1.883935928E-1,1.823987007E0
1.040683775E1,-1.984678209E-1,-3.042201996E-1,1.887343049E0
1.041681075E1,-8.962252140E-1,-3.328866959E-1,1.980287671E0
1.042703875E1,-1.494387150E0,-3.399868011E-1,2.038503885E0
1.043687175E1,-1.857974291E0,-1.997489929E-1,2.188667297E0
1.044683275E1,-1.916993976E0,6.625270844E-2,2.142979145E0
1.045682875E1,-1.706284285E0,4.223251343E-1,2.007867098E0
1.046682675E1,-1.230338454E0,8.105125427E-1,1.836839199E0
1.048066175E1,-8.118121624E-1,1.263421059E0,1.546202898E0
1.049684175E1,-5.096924305E-1,2.560467243E0,1.114514351E0
1.050697575E1,-4.934207201E-1,3.275130272E0,7.241896391E-1
1.051684875E1,-3.540827632E-1,3.825685501E0,4.952769876E-1
1.052684575E1,-2.941152453E-1,4.264546394E0,3.036316633E-1
1.053686675E1,-1.363263428E-1,4.491895676E0,2.342031002E-1
1.054795775E1,1.185283363E-1,4.551378727E0,2.404899597E-1
1.055690575E1,3.532030582E-1,4.519554138E0,2.888621092E-1
1.056693975E1,6.090373993E-1,4.401463032E0,2.737101316E-1
1.057686275E1,7.145472765E-1,4.314761162E0,1.706602573E-1
1.058687475E1,8.473160267E-1,4.175862312E0,5.823016167E-3
1.059692675E1,9.584234953E-1,3.952438831E0,-2.122857571E-1
1.060690575E1,1.131497860E0,3.689643860E0,-4.710214138E-1
1.061685275E1,1.292710543E0,3.330012321E0,-7.842343450E-1
1.062686975E1,1.414483309E0,2.837589741E0,-1.031799793E0
1.064067975E1,1.662994385E0,2.247567177E0,-1.209981918E0
1.065690275E1,2.178366423E0,5.604009628E-1,-1.439286351E0
1.066690475E1,2.518581629E0,-5.237998962E-1,-1.406231880E0
1.067689275E1,2.733409882E0,-1.601411819E0,-1.337552309E0
1.068692975E1,2.910077333E0,-2.570249557E0,-1.329336524E0
1.069693375E1,2.925237894E0,-3.234493256E0,-1.483625412E0
1.070686375E1,2.769874573E0,-3.508718491E0,-1.958690763E0
1.071683675E1,2.525690317E0,-3.357380867E0,-2.582366943E0
1.072690375E1,2.411757708E0,-3.042773247E0,-3.317586899E0
1.073690475E1,2.461711645E0,-2.687437057E0,-4.082041740E0
1.074685475E1,2.606284618E0,-2.477815628E0,-4.676084995E0
1.075691775E1,2.699644566E0,-2.363843918E0,-5.001882553E0
1.076687775E1,2.625134945E0,-2.370834351E0,-5.130132198E0
1.077688375E1,2.440720081E0,-2.512518883E0,-5.059914589E0
1.078693975E1,2.276412249E0,-2.648921013E0,-4.819804192E0
1.079688575E1,2.101840019E0,-2.732529640E0,-4.437448502E0
1.080835075E1,1.918601394E0,-2.792615891E0,-4.033807278E0
1.081688075E1,1.787666082E0,-2.936747551E0,-3.605149031E0
1.082697175E1,1.803828955E0,-3.289741516E0,-3.178947926E0
1.083706575E1,1.818534732E0,-3.776841164E0,-2.703285933E0
1.084732475E1,1.773061872E0,-4.268597603E0,-2.209040880E0
1.085689275E1,1.736325145E0,-4.753079414E0,-1.707631350E0
1.086772075E1,1.715082169E0,-5.253977776E0,-5.249462128E-1
1.087688075E1,1.637383699E0,-5.752416611E0,-4.315626621E-1
1.088689575E1,1.395282745E0,-5.961426735E0,9.500336647E-2
1.089683775E1,8.393452168E-1,-5.520532608E0,4.882519245E-1
1.090699875E1,2.978697121E-1,-4.601724625E0,6.451892853E-1
1.091682375E1,-9.742640257E-1,-2.289883614E0,6.615793705E-1
1.092690975E1,-1.254670978E0,-1.387169838E0,6.370370388E-1
1.093690775E1,-1.512157798E0,-6.420087814E-1,5.949027538E-1
1.094694775E1,-1.688368559E0,-9.916210175E-2,6.286258698E-1
1.095700175E1,-1.683483839E0,2.082061768E-1,6.763213873E-1
1.096682875E1,-1.587360382E0,4.201364517E-1,7.862187624E-1
1.097689075E1,-1.378569365E0,4.942550659E-1,7.834844589E-1
1.098686875E1,-1.064824820E0,5.192699432E-1,7.868834734E-1
1.099684075E1,-7.049897313E-1,5.389986038E-1,8.135368824E-1
1.100692475E1,-6.600633264E-1,6.572790146E-1,7.706265450E-1
1.101687475E1,-7.027540207E-1,7.829790115E-1,6.440658569E-1
1.102685375E1,-6.173751354E-1,8.020038605E-1,4.128902555E-1
1.103682875E1,-6.859284043E-1,8.688001633E-1,2.600407600E-1
1.104685675E1,-6.947616935E-1,9.674453735E-1,2.926648855E-1
1.105688475E1,-7.388889790E-1,1.173145294E0,3.015092015E-1
1.106682175E1,-5.669729710E-1,1.506382942E0,3.155972958E-1
1.107680775E1,-3.713242710E-1,2.049978256E0,3.587593436E-1
1.108686775E1,-2.136398256E-1,2.657967091E0,3.414549530E-1
1.109685775E1,-1.914812326E-1,3.172782421E0,3.067746460E-1
1.110706975E1,9.827790260E-1,2.446296692E0,-4.250640869E-1
1.111682375E1,2.034802437E0,1.314661980E0,-1.765475392E0
1.112785675E1,1.340005040E0,1.784502983E0,-2.643759251E0
1.113682175E1,-9.281843901E-2,3.020799637E0,-3.158908606E0
1.114732875E1,-6.195440292E-1,3.321033955E0,-3.920044422E0
1.115706175E1,-8.477479219E-1,3.327187061E0,-4.396642685E0
1.116742075E1,-1.036312103E0,4.566879272E0,-3.082400560E0
1.117687375E1,-8.447656631E-1,4.427821636E0,-1.499290109E0
1.118683075E1,-3.782414198E-1,3.622526646E0,-1.604652166E0
1.119684275E1,-4.986584187E-2,2.880088806E0,-1.655197859E0
1.120693175E1,-1.045587659E0,3.879717827E0,6.640038490E-1
1.121684175E1,-1.283016205E0,4.167906284E0,3.147290945E0
1.122697575E1,-1.265626788E0,3.547928333E0,4.236123085E0
1.123887275E1,-4.041919112E-1,2.566491127E0,5.807036400E0
1.124690175E1,7.043234706E-1,1.308338165E0,5.915972233E0
1.125684875E1,5.509889126E-1,2.860355377E-2,6.434755802E0
1.126689475E1,5.516312718E-1,-9.167804718E-1,4.331559181E0
1.127682075E1,8.434672952E-1,-1.198779106E0,8.825280666E-1
1.128706875E1,1.411665082E0,-1.092476845E0,-7.987065315E-1
1.129687375E1,1.811680436E0,-4.232931137E-1,-7.282514572E-1
1.130684375E1,2.216149330E0,5.437784195E-1,4.920806885E-1
1.131682475E1,2.222004652E0,1.180303097E0,1.579794884E0
1.132704275E1,2.107691050E0,1.274050713E0,2.263940573E0
1.133686175E1,2.240806580E0,1.033786297E0,2.511948109E0
1.134681875E1,2.117801428E0,6.817207336E-1,2.576173306E0
1.135690575E1,2.220443010E0,2.533712387E-1,2.671389103E0
1.136683575E1,2.575045824E0,-1.036825180E-1,2.520555973E0
1.137686875E1,2.813616276E0,-3.503618240E-1,2.172445297E0
1.138684675E1,3.077610254E0,-5.534248352E-1,1.342242956E0
1.139683375E1,3.158170700E0,-7.841510773E-1,9.124302864E-2
1.140705875E1,2.794209003E0,-9.681730270E-1,-1.733885050E0
1.141711775E1,2.069020748E0,-1.225923538E0,-3.429825306E0
1.142688075E1,1.116439700E0,-1.773809433E0,-4.543631554E0
1.143687975E1,-2.435540408E-1,-2.553107262E0,-5.829524994E0
1.144696375E1,-6.686825752E-1,-6.051396370E0,-9.485766888E-1
1.145689875E1,1.866525039E-3,-7.160861015E0,3.749773502E-1
1.146747275E1,6.882935166E-1,-7.457613945E0,9.356731176E-1
1.147685575E1,1.199834108E0,-6.631913185E0,6.355468035E-1
1.149052875E1,1.204266191E0,-5.343589783E0,-7.609713078E-2
1.150694375E1,7.446526289E-1,-2.721231461E0,-1.404434204E0
1.151685175E1,4.003370106E-1,-1.954886436E0,-1.403353333E0
1.152709175E1,5.520743132E-1,-1.571505547E0,-5.712764263E-1
1.153694175E1,9.479495287E-1,-1.350314140E0,1.340678930E-1
1.154695175E1,1.291851282E0,-1.050650597E0,4.251555800E-1
1.155684175E1,1.548124313E0,-7.294950485E-1,4.461513758E-1
1.156680375E1,1.693444133E0,-6.071901321E-1,3.825956583E-1
1.157687775E1,1.792544484E0,-6.735925674E-1,6.920330524E-1
1.158714375E1,1.631468534E0,-7.788133621E-1,1.246113896E0
1.159687475E1,1.407838583E0,-7.938833237E-1,1.633447409E0
1.160709175E1,5.629924536E-1,-8.001279831E-1,1.858406067E0
1.161692175E1,2.406873703E-1,-8.133869171E-1,2.186884880E0
1.162687675E1,-1.818066835E-2,-8.363876343E-1,2.371023655E0
1.163687875E1,-2.537395060E-1,-8.101472855E-1,2.411611080E0
1.164692675E1,-4.809230268E-1,-6.617631912E-1,2.358667612E0
1.165709975E1,-6.709911227E-1,-3.591585159E-1,2.069300175E0
1.166685575E1,-8.790963888E-1,1.443672180E-2,1.624705315E0
1.167689875E1,-8.557596207E-1,4.378480911E-1,1.185277343E0
1.168692775E1,-8.965694904E-1,9.314451218E-1,6.415691376E-1
1.169690475E1,-8.397434950E-1,1.461685181E0,1.801191568E-1
1.170700075E1,-8.944973946E-1,2.038646221E0,-2.506754398E-1
1.171707975E1,-1.010120749E0,2.687134266E0,-5.872992277E-1
1.172693875E1,-1.056586146E0,3.291638374E0,-8.569637537E-1
1.173691275E1,-9.554948807E-1,3.759024143E0,-9.872332215E-1
1.174690875E1,-7.584905624E-1,4.170054436E0,-9.780786037E-1
1.175693375E1,-7.012897730E-1,4.565191746E0,-1.011973619E0
1.176767875E1,-6.038684249E-1,4.875804901E0,-1.118134618E0
1.177777875E1,-5.095262527E-1,5.070790768E0,-1.183704972E0
1.178776075E1,-4.981538355E-1,5.145567894E0,-1.261415958E0
1.179687275E1,-5.016083717E-1,5.066630363E0,-1.359607220E0
1.180701675E1,-5.550967455E-1,4.834505081E0,-1.424824953E0
1.181688675E1,-5.935124159E-1,4.383948803E0,-1.591757774E0
1.182780075E1,-5.522030592E-1,3.769980907E0,-1.736504316E0
1.183689675E1,-5.059036613E-1,2.994935989E0,-1.854842186E0
1.184755375E1,-4.960892498E-1,2.156075954E0,-1.926418066E0
1.185690075E1,-4.392676055E-1,1.240474701E0,-1.918114424E0
1.186759975E1,-2.634229660E-1,2.822580338E-1,-1.861564159E0
1.187690175E1,3.170192242E-3,-6.494979858E-1,-1.839727163E0
1.188689375E1,4.073954225E-1,-1.455257416E0,-1.872156620E0
1.189697375E1,8.114449382E-1,-2.053114891E0,-1.982928276E0
1.190707075E1,1.182002783E0,-2.443761826E0,-2.191050529E0
1.191691575E1,1.451427698E0,-2.543782234E0,-2.495886326E0
1.192689075E1,1.522784948E0,-2.184985161E0,-1.952459455E0
1.193693275E1,1.496369123E0,-1.810034752E0,-1.936833262E0
1.194706275E1,1.610862374E0,-1.465654373E0,-2.039381027E0
1.195690175E1,1.632768989E0,-1.177312851E0,-2.348319530E0
1.196692175E1,1.712346911E0,-1.020964622E0,-2.511882782E0
1.197695275E1,1.912911296E0,-9.736614227E-1,-2.574344158E0
1.198693375E1,2.046539307E0,-1.003462791E0,-2.419038773E0
1.199696475E1,2.044628859E0,-9.910755157E-1,-2.144319773E0
1.200686975E1,1.973293066E0,-9.322347641E-1,-1.772186160E0
1.201685475E1,1.823710561E0,-8.918380737E-1,-1.382855177E0
1.202691275E1,1.729076624E0,-9.662456512E-1,-1.058948517E0
1.203723675E1,1.658109307E0,-1.204401016E0,-7.200012207E-1
1.204685175E1,1.610775113E0,-1.640396118E0,-3.191814423E-1
1.205693375E1,1.644727945E0,-2.354939461E0,1.550558805E-1
1.206686775E1,1.737659216E0,-3.330111504E0,7.702139616E-1
1.207687275E1,2.015902042E0,-4.421202660E0,1.495806456E0
1.208700475E1,2.113924980E0,-5.722054482E0,2.172482967E0
1.209684975E1,2.268209457E0,-6.599533081E0,2.922968864E0
1.210687975E1,2.087970257E0,-6.924409866E0,3.336863756E0
1.211680575E1,1.602313757E0,-6.337185860E0,3.156384945E0
1.212684775E1,1.237612009E0,-5.234883308E0,2.493018389E0
1.213684675E1,8.362605572E-1,-3.862289429E0,1.882930756E0
1.214694275E1,4.417445660E-1,-2.615899086E0,1.466761112E0
1.215685075E1,1.774082780E-1,-1.621508598E0,1.304396033E0
1.216683775E1,6.742370129E-2,-8.623666763E-1,1.343331337E0
1.217686475E1,-7.937425375E-2,-1.387929916E-1,1.483543634E0
1.218686775E1,-2.873778343E-1,5.695838928E-1,1.471300840E0
1.219687575E1,-4.716396332E-1,1.092963219E0,1.394674897E0
1.220683075E1,-5.720780492E-1,1.442083359E0,1.289088011E0
1.221681975E1,-5.357084870E-1,1.615531921E0,1.206938028E0
1.222828675E1,-4.921829700E-1,1.804718494E0,1.087580919E0
1.223685575E1,-4.230144024E-1,1.943197250E0,8.957511783E-1
1.224684875E1,-5.293214321E-1,2.005932808E0,9.086278677E-1
1.225693075E1,-5.236118436E-1,2.049850464E0,8.046396971E-1
1.226707575E1,-9.112366438E-1,2.063999653E0,6.166410446E-1
1.227686075E1,-1.360460162E0,1.875171185E0,5.852463841E-1
1.228702975E1,-1.759038091E0,1.480744362E0,7.276178598E-1
1.229685275E1,-1.821857214E0,9.668931961E-1,8.974322677E-1
1.230689475E1,-1.763815641E0,5.999364853E-1,1.099081516E0
1.231687775E1,-1.658019423E0,4.077959061E-1,1.253968358E0
1.232690075E1,-1.569011927E0,5.018548965E-1,1.394493937E0
1.233688275E1,-1.553867936E0,8.234767914E-1,1.447228909E0
1.234689475E1,-1.734586954E0,1.302993774E0,1.408230782E0
1.235686975E1,-2.037689447E0,1.732298374E0,1.363321066E0
1.236692575E1,-2.282793283E0,1.996473312E0,1.320061445E0
1.237682575E1,-2.327577353E0,2.119445324E0,1.274567842E0
1.238711375E1,-2.495840073E0,2.359190464E0,1.239066601E0
1.239685375E1,-2.362588644E0,2.458925247E0,1.206511140E0
1.240685475E1,-1.870512486E0,2.417874336E0,9.393877387E-1
1.241682975E1,-1.318740129E0,2.350874901E0,4.372279644E-1
1.242708475E1,-1.076671481E0,2.573833942E0,-1.529679298E-1
1.243957175E1,-1.932695031E0,3.648319244E0,-7.658821344E-1
1.245688675E1,-1.939233184E0,3.827170372E0,-1.556193829E-1
1.246708175E1,-1.834728599E0,3.744667053E0,3.551173210E-1
1.247685875E1,-1.397601128E0,3.234452248E0,9.633681774E-1
1.248688975E1,-8.792266846E-1,2.715029716E0,1.785737872E0
1.249684475E1,3.158867359E-2,1.569500446E0,2.230727196E0
1.250744375E1,1.788172722E-1,6.111669540E-1,2.336581945E0
1.251686775E1,-4.314252138E-1,1.299169064E0,3.578835249E0
1.252687575E1,-3.561849594E-1,1.382496357E0,4.488666058E0
1.253687975E1,-9.039759636E-2,1.291718483E0,5.286511421E0
1.254700675E1,1.392474174E-1,1.143711567E0,5.830306053E0
1.255690675E1,-3.007531166E-2,1.362137318E0,6.063312054E0
1.256777675E1,-5.750435591E-1,2.007354259E0,5.409154892E0
1.257683775E1,-8.530547619E-1,1.805164337E0,4.696719646E0
1.258709975E1,-5.329924822E-1,8.359570503E-1,4.239922047E0
1.259693875E1,1.089534760E-1,-1.544351578E-1,3.871303797E0
1.260687875E1,7.782080173E-1,-8.057079315E-1,3.482288599E0
1.261681975E1,1.458200693E0,-1.216898918E0,2.937892914E0
1.262712775E1,1.960945606E0,-1.288992882E0,2.053949833E0
1.263751775E1,2.305370808E0,-1.022770882E0,6.022672653E-1
1.264691675E1,2.310868740E0,-8.230848312E-1,-1.648060799E0
1.265686975E1,2.163680553E0,-1.111591339E0,-3.501931429E0
1.266697775E1,1.760201335E0,-1.797645569E0,-5.016604424E0
1.267699075E1,2.263060331E0,-1.654383659E0,-7.249361038E0
1.268688075E1,2.376009464E0,-4.053802490E-1,-9.197021484E0
1.269691175E1,6.016252041E-1,1.863842964E0,-1.033653355E1
1.270708375E1,-3.158183098E-1,2.604541302E0,-1.079904652E1
1.271693275E1,-5.549125671E-1,-2.428541183E-1,-1.069439888E1
1.272778475E1,-1.269117236E0,-2.335082054E0,-6.651059151E0
1.273690575E1,-1.013673186E0,-4.762702942E0,-5.654259682E0
1.274701475E1,-5.754805803E-1,-7.247511864E0,-6.321157455E0
1.275691175E1,-5.184811354E-1,-7.070410728E0,-2.092501402E0
1.276706075E1,-8.701412678E-1,-4.870752335E0,2.589865208E0
1.277691475E1,-1.852935553E-1,-3.429451942E0,3.947734594E0
1.278690075E1,9.492390156E-1,-2.938128471E0,4.115604877E0
1.279689675E1,1.673805952E0,-3.222416878E0,4.756646156E0
1.280687875E1,1.565562248E0,-3.581267357E0,5.310490608E0
1.281689375E1,4.551799297E-1,-3.553593636E0,5.974391460E0
1.282699375E1,-3.884513378E-1,-3.427958488E0,6.229724884E0
1.283689975E1,-5.771043301E-1,-3.036626816E0,6.131985664E0
1.284706475E1,-8.642048836E-1,-2.197110176E0,5.972417355E0
1.285687875E1,-9.643349648E-1,-9.951496124E-1,5.745820045E0
1.286692175E1,-1.165622234E0,3.049583435E-1,5.055799961E0
1.287691375E1,-1.512506843E0,1.464144230E0,4.313396931E0
1.288706675E1,-1.682043672E0,2.207242489E0,3.641809940E0
1.289689075E1,-1.740047693E0,2.737510681E0,3.021176338E0
1.290889075E1,-1.682552338E0,2.732514858E0,2.372039557E0
1.292191575E1,-1.211625934E0,1.588203430E0,2.358089924E0
1.293708475E1,-1.136352658E0,1.177561760E0,2.927400827E0
1.294823375E1,-1.297608376E0,1.117011070E0,3.406725645E0
1.295727175E1,-1.657160759E0,1.234551430E0,3.957497120E0
1.296709175E1,-2.000797510E0,1.377644539E0,4.609997749E0
1.297700075E1,-2.189878702E0,1.668044090E0,5.343012333E0
1.298693475E1,-2.440829277E0,1.917241573E0,5.880572319E0
1.299690475E1,-2.313174486E0,2.150256157E0,6.269966602E0
1.300692275E1,-2.016053438E0,2.387051105E0,6.441224098E0
1.301690575E1,-1.635953546E0,2.612713814E0,6.351040363E0
1.302703575E1,-1.230590820E0,2.790583611E0,6.079532623E0
1.303687675E1,-9.064228535E-1,2.862084866E0,5.814804554E0
1.304690475E1,-6.422431469E-1,2.882312775E0,5.285351753E0
1.305687075E1,-4.771872759E-1,2.317723751E0,4.787357330E0
1.306689175E1,-2.465220690E-1,1.631102085E0,4.398716450E0
1.307684075E1,1.718640327E-2,8.544569016E-1,4.057563305E0
1.308690975E1,2.253801823E-1,1.339282990E-1,3.673260689E0
1.309710475E1,3.830943108E-1,-4.844236374E-1,3.269834757E0
1.310699475E1,5.352008343E-1,-9.790143967E-1,2.795707941E0
1.311682875E1,7.225592136E-1,-1.346782684E0,2.302488565E0
1.312693575E1,1.000171542E0,-1.607886314E0,1.783562183E0
1.313689975E1,1.253477931E0,-1.672569275E0,1.275316954E0
1.314703675E1,1.376136541E0,-1.550378799E0,8.162631989E-1
1.315709275E1,1.462538958E0,-1.321382523E0,4.114180803E-1
1.316682975E1,1.464597464E0,-1.031856537E0,1.058358774E-1
1.317694275E1,1.330813408E0,-7.570781708E-1,-1.865419745E-1
1.318701975E1,1.201632261E0,-6.426467896E-1,-4.888169765E-1
1.319689175E1,1.125461221E0,-6.677045822E-1,-9.281868935E-1
1.320688475E1,9.799815416E-1,-7.866744995E-1,-1.485049248E0
1.321695875E1,8.298022747E-1,-9.562702179E-1,-2.004781485E0
1.322720075E1,6.203861237E-1,-1.102121353E0,-2.788985491E0
1.323696475E1,2.716810703E-1,-1.173267365E0,-3.281668425E0
1.324694675E1,-4.067277908E-2,-1.184271812E0,-3.988170624E0
1.325707675E1,-3.658145666E-1,-1.189467430E0,-5.136353970E0
1.326710375E1,-4.896645546E-1,-1.322334290E0,-5.649136066E0
1.327688175E1,-4.068894982E-1,-1.606211662E0,-5.659897804E0
1.328688875E1,-9.534347057E-2,-1.994612694E0,-5.235578060E0
1.329684875E1,1.672240496E-1,-2.326961517E0,-4.106172085E0
1.330701775E1,5.129761696E-1,-2.489922523E0,-2.932882309E0
1.331685275E1,1.280155420E0,-2.754574776E0,-2.015370131E0
1.332797575E1,2.036752224E0,-3.284702301E0,-1.105929494E0
1.333690075E1,2.392972708E0,-3.741723061E0,-3.383230567E-1
1.334802075E1,2.803617477E0,-4.546213150E0,2.916308641E-1
1.335700875E1,3.283432007E0,-5.606723785E0,6.565741301E-1
1.336762875E1,3.483273745E0,-6.530540466E0,7.462263703E-1
1.337683175E1,3.522503376E0,-6.942938805E0,8.320125341E-1
1.339089275E1,2.693818092E0,-5.952193260E0,6.150286198E-1
1.340691075E1,2.261512041E0,-4.797332764E0,6.266577244E-1
1.341714475E1,1.691197157E0,-3.547696114E0,5.203828812E-1
1.342702875E1,1.157485127E0,-2.485158920E0,5.007715821E-1
1.343690275E1,5.754663944E-1,-1.351119995E0,5.912433863E-1
1.344686075E1,-2.329969406E-2,-4.735431671E-1,8.245277405E-1
1.345688975E1,-6.216776371E-1,9.834003448E-2,1.251245141E0
1.346686975E1,-1.277358890E0,5.703887939E-1,1.755312800E0
1.347687275E1,-1.709594727E0,8.476676941E-1,2.276791811E0
1.348688075E1,-2.188803911E0,9.682683945E-1,2.713848591E0
1.349686275E1,-2.248641729E0,8.362722397E-1,3.092370272E0
1.350688375E1,-2.130387783E0,4.910736084E-1,3.226094007E0
1.351692375E1,-1.838458776E0,9.030151367E-2,3.265491009E0
1.352698575E1,-1.804974318E0,-1.378774643E-1,3.283565760E0
1.353688775E1,-2.025248051E0,-1.399364471E-1,3.209473133E0
1.354697875E1,-2.614206791E0,1.069164276E-2,3.015512705E0
1.355687275E1,-2.906004429E0,2.897529602E-1,2.807087898E0
1.356683175E1,-2.138846874E0,6.467142105E-1,2.738975048E0
1.357686075E1,-2.652900934E0,1.295578003E0,2.415828943E0
1.358691175E1,-2.716411114E0,1.487663269E0,2.469768763E0
1.359712875E1,-2.250269890E0,2.114145756E0,2.478261709E0
1.360692275E1,-2.107446194E0,2.601666927E0,2.410186529E0
1.361682075E1,-1.872438192E0,3.042019844E0,2.336976528E0
1.362708375E1,-9.455758333E-1,2.710191250E0,1.893315554E0
1.363687675E1,2.280085087E0,9.852600098E-2,3.986144066E-2
1.364698575E1,1.947985291E0,2.120904922E-1,-1.201950669E0
1.365686975E1,6.114016771E-1,1.138986588E0,-1.961609364E0
1.366683675E1,-7.384920120E-1,2.047415733E0,-2.976958990E0
1.367686775E1,-3.164276600E0,5.258742809E0,-2.150770426E0
1.368690975E1,-3.325417995E0,5.704658508E0,-8.137760162E-1
1.369684275E1,-1.926246047E0,4.722734451E0,-1.397178173E-1
1.370708475E1,-5.409384966E-1,3.908007145E0,-1.536130905E-3
1.371688375E1,8.495968580E-2,3.987523079E0,9.495007992E-1
1.372684875E1,1.448430419E-1,4.343032837E0,2.381355047E0
1.373712575E1,-3.509972095E-1,3.836797237E0,3.353769779E0
1.374684375E1,-8.693976402E-1,2.714012623E0,3.308361053E0
1.375684175E1,-1.236194849E0,1.166883469E0,3.266374111E0
1.376679275E1,-6.896485090E-1,-1.582202911E-1,6.474597931E0
1.377683075E1,8.741581440E-1,-6.370506287E-1,1.037920570E1
1.378695175E1,2.709724188E0,-1.384011745E0,7.438316345E0
1.379683575E1,3.294824362E0,-1.950176239E0,3.361951113E0
1.380684475E1,2.938394785E0,-1.765295982E0,7.281661034E-1
1.381680075E1,2.240820885E0,-9.518575668E-1,-7.091679573E-1
1.382687875E1,1.796500921E0,6.786632538E-2,-1.214990616E-1
1.383691275E1,8.974361420E-1,9.301052094E-1,1.838153362E0
1.384696675E1,-2.102483511E-1,1.808521748E0,3.263057232E0
1.385691175E1,-2.808905840E-1,1.511534214E0,4.371868134E0
1.386688675E1,1.928496361E-1,6.586890221E-1,4.623406887E0
1.387685775E1,1.013483882E0,-1.946163177E-1,3.527605534E0
1.388690175E1,1.831186295E0,-8.281917572E-1,9.978985786E-1
1.389691575E1,2.384794235E0,-1.304083824E0,-2.012939215E0
1.390743375E1,1.700951576E0,-1.674572945E0,-2.936017990E0
1.391690875E1,-1.547452211E-1,-2.815415382E0,-5.064687729E-1
1.392697075E1,-1.184283972E0,-4.117227554E0,4.978320599E-1
1.393717175E1,-1.033861160E0,-4.883866310E0,-1.728433609E0
1.394715975E1,7.240539789E-1,-6.064007759E0,2.796971798E-1
1.395689475E1,1.731789947E0,-6.446915627E0,2.530399323E0
1.396758075E1,1.589834571E0,-6.039192200E0,2.563681364E0
1.397686175E1,1.338231564E0,-5.615238190E0,2.148419619E0
1.398726275E1,1.095298171E0,-5.333584785E0,2.003087997E0
1.399696375E1,8.950476646E-1,-5.130308151E0,2.177046537E0
1.400720675E1,5.617536306E-1,-4.624227524E0,1.806794643E0
1.401741375E1,3.940609694E-1,-3.967809677E0,1.591426969E0
1.402707375E1,3.206700087E-1,-3.235934258E0,1.783364058E0
1.403706375E1,5.975378752E-1,-2.539370537E0,2.024022818E0
1.404691075E1,9.177693129E-1,-1.778252602E0,2.338613033E0
1.405685175E1,1.273503423E0,-1.211585045E0,2.878693819E0
1.406681875E1,1.353311062E0,-7.855710983E-1,3.252954483E0
1.407696975E1,1.032252312E0,-6.418905258E-1,3.477423668E0
1.408761575E1,6.797230244E-2,-9.676065445E-1,4.056305885E0
1.409685575E1,7.203531265E-2,-9.376430511E-1,3.875352144E0
1.410708575E1,-3.021656275E-1,-1.088125229E0,3.676217794E0
1.411684675E1,-3.133651018E-1,-1.252721786E0,3.413623333E0
1.412686075E1,-2.467930317E-1,-1.182365417E0,3.250862598E0
1.413688775E1,-2.053837776E-1,-9.805660248E-1,2.940531969E0
1.414687775E1,-4.470467567E-1,-5.833206177E-1,2.521675825E0
1.415691875E1,-4.473515749E-1,-2.050952911E-1,2.187718153E0
1.416684475E1,-3.628728390E-1,1.627054214E-1,1.768025637E0
1.417689275E1,-2.707502842E-1,6.796627045E-1,1.413998842E0
1.418711775E1,-1.533110142E-1,1.217409134E0,1.133742213E0
1.419688175E1,3.013646603E-2,1.766445160E0,8.325339556E-1
1.420692675E1,1.510074139E-1,2.362003326E0,6.328268051E-1
1.421684375E1,7.595157623E-2,3.052856922E0,4.896703660E-1
1.422685775E1,-1.777989864E-1,3.707483292E0,2.698416114E-1
1.423687775E1,-4.496165514E-1,4.220750809E0,7.454347610E-2
1.424682675E1,-8.154714108E-1,4.626365662E0,-6.343349814E-2
1.425686475E1,-9.934929013E-1,4.854929924E0,-2.380956709E-1
1.426685075E1,-1.164764166E0,5.012733459E0,-4.566583037E-1
1.427688775E1,-1.297970295E0,5.085202694E0,-3.626993299E-1
1.428687875E1,-1.177447796E0,4.985944748E0,-1.333954930E-1
1.429689575E1,-1.142904043E0,4.745944023E0,1.889121532E-2
1.430699975E1,-1.080423236E0,4.398722172E0,1.204681993E-1
1.431681075E1,-1.054214478E0,3.966987133E0,1.744868159E-1
1.432685075E1,-1.086691976E0,3.527427673E0,2.337228656E-1
1.433686475E1,-1.121657729E0,3.058956146E0,2.617815733E-1
1.434695475E1,-1.118102670E0,2.527766228E0,3.239771128E-1
1.435709675E1,-9.912859201E-1,1.932335854E0,3.985511065E-1
1.436683375E1,-7.784780264E-1,1.333116531E0,4.960784912E-1
1.437684375E1,-4.692177176E-1,7.936887741E-1,5.636311769E-1
1.438687175E1,-3.204786777E-2,3.090600967E-1,5.590729713E-1
1.439694375E1,3.565857410E-1,-9.062194824E-2,4.980231524E-1
1.440687575E1,7.696703672E-1,-4.893312454E-1,3.080290556E-1
1.441686475E1,1.054848075E0,-7.637948990E-1,1.386911869E-1
1.442688075E1,1.211229086E0,-9.236154556E-1,7.975220680E-3
1.443688275E1,1.528898597E0,-1.330054283E0,-2.362216711E-1
1.444724075E1,2.045399189E0,-1.851470947E0,-5.637801290E-1
1.445687275E1,2.384200335E0,-2.209375381E0,-9.407687783E-1
1.446770175E1,2.616032124E0,-2.441367149E0,-1.367029428E0
1.447687275E1,2.810479641E0,-2.557130814E0,-1.856359720E0
1.448697875E1,2.857707024E0,-2.505949974E0,-2.413495541E0
1.449684975E1,2.863632679E0,-2.363441467E0,-2.854094982E0
1.450697975E1,2.866139889E0,-2.175207138E0,-3.113500118E0
1.451686275E1,2.875666380E0,-2.042079926E0,-3.310690403E0
1.452700275E1,2.838977337E0,-1.896540642E0,-3.404758215E0
1.453688175E1,2.814741135E0,-1.860534668E0,-3.328395128E0
1.454685575E1,2.731878519E0,-1.949611664E0,-3.167357683E0
1.455687675E1,2.706671953E0,-2.207353592E0,-2.962687969E0
1.456690675E1,2.741322517E0,-2.548442841E0,-2.550942898E0
1.457687475E1,2.877230644E0,-3.035180092E0,-1.980162621E0
1.458696275E1,3.098001957E0,-3.706566811E0,-1.423288584E0
1.459836575E1,3.347551584E0,-5.093691826E0,-4.725339413E-1
1.460688775E1,3.370659351E0,-5.080134392E0,-3.996043205E-1
1.461689675E1,3.191462994E0,-5.418457031E0,-5.524849892E-2
1.462709675E1,2.832848072E0,-5.254676819E0,1.799544096E-1
1.463687175E1,2.280532598E0,-4.725410461E0,3.758161068E-1
1.464688175E1,1.668580651E0,-3.875097275E0,6.376765966E-1
1.465699275E1,5.201581120E-1,-2.064338684E0,7.680425644E-1
1.466685275E1,-1.493418217E-1,-1.195179939E0,9.353799820E-1
1.467690175E1,-6.938806772E-1,-4.539127350E-1,1.094135046E0
1.468700375E1,-1.223272324E0,6.741333008E-2,1.313486338E0
1.469684175E1,-1.594599724E0,4.035406113E-1,1.611257315E0
1.470685075E1,-1.679909468E0,4.637069702E-1,1.848120928E0
1.471692375E1,-1.542637467E0,3.338317871E-1,2.084505796E0
1.472691875E1,-1.371682048E0,1.698884964E-1,2.243466377E0
1.473690375E1,-1.278466582E0,-9.270668030E-3,2.169264078E0
1.474701975E1,-1.173162341E0,-5.193805695E-2,2.065486431E0
1.475708475E1,-1.197263002E0,6.681156158E-2,2.037843943E0
1.476704275E1,-1.419196129E0,2.309265137E-1,1.900584102E0
1.477686175E1,-1.370838284E0,2.946243286E-1,1.720239162E0
1.478688075E1,-1.285333037E0,5.161628723E-1,1.520772815E0
1.479687975E1,-1.405117869E0,6.278934479E-1,1.375646591E0
1.480721175E1,-1.324074984E0,8.240175247E-1,1.445982695E0
1.481693575E1,-1.394569278E0,1.175286293E0,1.466858864E0
1.482702975E1,-1.373413324E0,1.587124825E0,1.525192976E0
1.483690975E1,-1.443855643E0,2.054640770E0,1.639045000E0
1.484709775E1,-1.389603496E0,2.498357296E0,1.696201324E0
1.485690475E1,-1.308757663E0,2.987354755E0,1.737199068E0
1.486703375E1,-1.355692744E0,3.391791344E0,1.701807976E0
1.487686675E1,-1.093610048E0,3.531286240E0,1.578778505E0
1.488707275E1,8.654946089E-1,2.265758514E0,6.259884834E-1
1.489739775E1,2.670300722E0,5.989418030E-1,-1.053916216E0
1.490693875E1,1.616300344E0,1.105215073E0,-1.895565987E0
1.491691375E1,5.714472532E-1,8.575286865E-1,-2.643980980E0
1.492688875E1,-1.795590401E0,3.443446636E0,-2.497827053E0
1.493690875E1,-2.866536856E0,4.996162891E0,-8.813455105E-1
1.494685275E1,-1.752359867E0,4.605466843E0,-8.695363998E-2
1.495688275E1,-2.581266165E-1,3.690629482E0,5.212934017E-1
1.496690375E1,1.532897830E0,2.660427094E0,5.438063145E-1
1.497685775E1,6.633239985E-1,2.792137623E0,1.447074175E0
1.498694275E1,-4.328872561E-1,2.791040421E0,2.696793795E0
1.499706175E1,-8.185758591E-1,1.951015472E0,4.042360306E0
1.500690675E1,5.924367905E-2,3.283400536E-1,4.903018951E0
1.501690675E1,8.101272583E-1,-8.649406433E-1,8.060007095E0
1.502685575E1,1.448628306E0,-1.097442150E0,6.627588272E0
1.503684375E1,2.546333790E0,-1.437098503E0,2.407416582E0
1.504684375E1,2.149994135E0,-1.540196896E0,-1.117219925E-1
1.505698675E1,5.321770906E-1,-8.348016739E-1,-1.563051701E0
1.506712575E1,-4.756164551E-2,5.036263466E-1,-1.026072025E0
1.507687075E1,3.076314926E-1,1.751825333E0,9.461307526E-1
1.508690375E1,3.364733458E-1,2.657646179E0,2.554143429E0
1.509686375E1,3.669555187E-1,3.128355026E0,3.373594761E0
1.510699075E1,4.340393543E-1,3.043925762E0,3.744452953E0
1.511688475E1,6.893956661E-1,2.664441109E0,3.998592854E0
1.512692975E1,8.675711155E-1,2.173983574E0,4.094403267E0
1.513688875E1,1.345781922E0,1.620551109E0,4.113697052E0
1.514702275E1,2.025651932E0,9.402403831E-1,3.730702639E0
1.515688975E1,3.172852516E0,2.299337387E-1,2.275551796E0
1.516691975E1,3.868653774E0,-4.085445404E-1,-3.722863197E-1
1.517703975E1,3.933535576E0,-7.196140289E-1,-3.362734795E0
1.518692175E1,2.604148388E0,-1.018912315E0,-4.975112915E0
1.519685675E1,-4.206742048E-1,-4.113387108E0,-1.828937531E0
1.520689875E1,-1.306274891E0,-5.513007164E0,-5.526795387E-1
1.521691375E1,-5.786778927E-1,-6.018823624E0,1.969776154E-1
1.522686675E1,8.078410625E-1,-6.065790176E0,1.392196655E0
1.523685775E1,1.287981987E0,-6.002883911E0,3.181995630E0
1.524694375E1,1.073804736E0,-6.072137833E0,3.950106621E0
1.525698575E1,9.774451256E-1,-6.024183273E0,3.916819811E0
1.526684775E1,9.929094315E-1,-5.996045113E0,2.919735909E0
1.527683075E1,9.044569731E-1,-5.554439545E0,1.205423355E0
1.528685275E1,9.021008015E-1,-5.138437271E0,-1.597735882E-1
1.529686075E1,1.153833508E0,-4.934182167E0,-4.924960136E-1
1.530691275E1,1.364858866E0,-4.361742020E0,4.354354143E-1
1.531680375E1,1.626540780E0,-3.710599899E0,1.446136951E0
1.532733375E1,1.839580059E0,-2.761666298E0,1.671337605E0
1.533685675E1,2.079584599E0,-1.749307632E0,1.644240737E0
1.534792675E1,2.192727566E0,-8.398056030E-1,1.537255764E0
1.535690375E1,2.109056473E0,-2.833747864E-2,1.236480117E0
1.536747375E1,1.990278602E0,4.197502136E-1,1.108282804E0
1.537685575E1,1.867520332E0,3.938779831E-1,1.478113294E0
1.538694775E1,1.475698590E0,5.165205002E-1,1.763854504E0
1.539688775E1,9.259487391E-1,5.302276611E-1,1.710565925E0
1.540688275E1,6.828418970E-1,3.775053024E-1,1.912518740E0
1.541687275E1,5.812798738E-1,2.673521042E-1,2.094454288E0
1.542701975E1,3.446847200E-1,3.704099655E-1,2.141299725E0
1.543688475E1,1.372375488E-1,5.450048447E-1,2.103340626E0
1.544684275E1,1.919209957E-2,7.235307693E-1,1.975023508E0
1.545685675E1,-3.535425663E-2,8.935317993E-1,1.809450626E0
1.546685475E1,-1.486576796E-1,1.130260468E0,1.574733019E0
1.547686575E1,-2.135953903E-1,1.368019104E0,1.364778519E0
1.548709075E1,-2.800953388E-1,1.650144577E0,1.134817123E0
1.549680075E1,-3.070967197E-1,1.938362122E0,8.703665733E-1
1.550721575E1,-5.407333374E-1,2.331031799E0,5.840192437E-1
1.551689375E1,-7.963797450E-1,2.750654221E0,3.568809927E-1
1.552687275E1,-8.870739341E-1,3.144893169E0,2.228413671E-1
1.553689875E1,-9.253493547E-1,3.482655048E0,1.852408350E-1
1.554691375E1,-1.040653229E0,3.793846607E0,1.496463716E-1
1.555690275E1,-1.159523010E0,4.026012421E0,1.246294379E-1
1.556687375E1,-1.306589365E0,4.170823574E0,2.685582638E-2
1.557687475E1,-1.377535224E0,4.251125336E0,-9.995442629E-2
1.558687775E1,-1.338231087E0,4.192542076E0,-2.474585176E-1
1.559685575E1,-1.250155926E0,4.048654079E0,-3.273632526E-1
1.560684375E1,-1.189320803E0,3.780799866E0,-4.337549806E-1
1.561687175E1,-1.012208700E0,3.407880306E0,-5.118898153E-1
1.562698675E1,-8.933399916E-1,2.976478577E0,-6.138614416E-1
1.563691175E1,-6.921585202E-1,2.391072750E0,-7.508640289E-1
1.564698575E1,-4.333189726E-1,1.701012611E0,-7.924415469E-1
1.565709775E1,-2.891993523E-2,9.354114532E-1,-8.485867381E-1
1.566690075E1,4.547947645E-1,2.004127502E-1,-8.731716871E-1
1.567707175E1,8.811424971E-1,-4.244689941E-1,-9.407546520E-1
1.568757975E1,1.343661547E0,-9.016389847E-1,-1.041772366E0
1.569685075E1,1.636461854E0,-1.141835213E0,-1.303010941E0
1.570687075E1,1.768148422E0,-1.059961319E0,-1.719806075E0
1.571727675E1,2.201405048E0,-6.298866272E-1,-2.418830633E0
1.572687875E1,2.200963497E0,-6.356077194E-1,-2.454371691E0
1.573691175E1,2.556595802E0,-1.633100510E-1,-2.784085274E0
1.574710875E1,2.702029228E0,-2.352428436E-2,-2.854799032E0
1.575687375E1,2.642031193E0,2.213191986E-2,-2.759141445E0
1.576687475E1,2.776421547E0,-1.494932175E-1,-2.791970730E0
1.577680775E1,2.861366034E0,-4.151201248E-1,-2.813694954E0
1.578699875E1,2.897440672E0,-6.207599640E-1,-2.789074421E0
1.579688575E1,2.910746574E0,-7.542200089E-1,-2.720133543E0
1.580684875E1,2.830348015E0,-8.013811111E-1,-2.574218750E0
1.581685375E1,2.761620998E0,-7.918329239E-1,-2.372075081E0
1.582805775E1,2.667395592E0,-7.985563278E-1,-2.162374973E0
1.583687675E1,2.578853607E0,-9.141511917E-1,-1.938160062E0
1.584768875E1,2.575056076E0,-1.160778999E0,-1.770971060E0
1.585699875E1,2.550576925E0,-1.487325668E0,-1.610247374E0
1.586757175E1,2.466937304E0,-1.909181595E0,-1.405351400E0
1.587691075E1,2.489009857E0,-2.531770706E0,-1.145481110E0
1.588699675E1,2.695163727E0,-3.393000603E0,-6.448585391E-1
1.589687375E1,3.009777069E0,-4.377403259E0,3.848385811E-2
1.590702375E1,3.208014250E0,-5.374099731E0,7.526619434E-1
1.591685275E1,3.436153889E0,-6.254260063E0,1.459139705E0
1.592697575E1,3.263596535E0,-6.916629791E0,1.901864648E0
1.593690875E1,2.783224106E0,-6.755534172E0,2.129409790E0
1.594682075E1,2.048918247E0,-5.976192474E0,2.018674374E0
1.595683575E1,1.368668675E0,-4.820111275E0,1.614644766E0
1.596683575E1,6.905328035E-1,-3.604096413E0,1.305524468E0
1.597681775E1,1.546404362E-1,-2.571165085E0,1.063667297E0
1.598685575E1,-4.130741358E-1,-1.646833420E0,1.076621413E0
1.599690175E1,-7.896639109E-1,-9.651765823E-1,1.100350142E0
1.600691675E1,-1.120777249E0,-4.057064056E-1,1.119215488E0
1.601681375E1,-1.542665243E0,2.935218811E-2,1.237145901E0
1.602685675E1,-1.421112776E0,1.364765167E-1,1.390941143E0
1.603688275E1,-1.279422522E0,2.108316422E-1,1.394990802E0
1.604679875E1,-1.066121578E0,2.112550735E-1,1.401176929E0
1.605681775E1,-9.257961512E-1,1.846551895E-1,1.272598267E0
1.606702575E1,-1.010784149E0,1.951608658E-1,1.183133125E0
1.607685975E1,-1.189599514E0,2.654676437E-1,1.022143483E0
1.608685275E1,-1.487551451E0,3.342227936E-1,8.180302382E-1
1.609684475E1,-1.669037342E0,3.397684097E-1,6.458435059E-1
1.610696075E1,-1.630447149E0,2.863731384E-1,5.473656058E-1
1.611681775E1,-1.471960187E0,3.516426086E-1,5.563538074E-1
1.612684875E1,-1.455714226E0,5.857210159E-1,5.151689649E-1
1.613687875E1,-1.318819523E0,9.488172531E-1,4.966168106E-1
1.614682775E1,-1.263922930E0,1.430535316E0,5.434762239E-1
1.615689675E1,-1.275750637E0,2.028525352E0,6.494441628E-1
1.616704975E1,-1.349927425E0,2.549409389E0,7.888537645E-1
1.617712675E1,-9.769507051E-1,2.679987907E0,7.055781484E-1
1.618702175E1,1.258066654E0,1.232866287E0,-2.901387215E-2
1.619690475E1,2.696015596E0,2.475051880E-1,-8.142803907E-1
1.620689375E1,1.226957440E0,1.459374428E0,-1.353196263E0
1.621686375E1,-1.146660566E0,3.568965912E0,-1.548673749E0
1.622694575E1,-2.499557018E0,5.034867764E0,-1.675481796E0
1.623688575E1,-2.304287910E0,4.570980072E0,-1.599622250E0
1.624711775E1,-2.734070301E0,5.359234810E0,-1.085477352E0
1.625685175E1,-2.851689816E0,5.775221825E0,-1.625132561E-2
1.626684075E1,-2.418871403E0,5.703241825E0,7.718513012E-1
1.627689475E1,-1.012828231E0,3.896010399E0,1.411965132E0
1.628703875E1,-1.053438902E0,3.539948940E0,2.320787907E0
1.629691675E1,-6.502237916E-1,3.579858780E0,3.880050182E0
1.630685775E1,8.746027946E-2,3.246010780E0,5.320107937E0
1.631688475E1,6.398500800E-1,2.168066502E0,7.704046249E0
1.632686475E1,1.406835675E0,2.959909439E-1,9.958654404E0
1.633699775E1,2.057652235E0,-1.010053635E0,7.413830280E0
1.634695375E1,3.113415718E0,-1.873489857E0,2.189131021E0
1.635684175E1,2.678630352E0,-1.950552464E0,-1.945312977E0
1.636698375E1,1.344646454E0,-1.076167107E0,-3.375984669E0
1.637685875E1,7.104150653E-1,3.047623634E-1,-1.667406082E0
1.638710875E1,1.045521975E0,1.324177742E0,4.022970200E-1
1.639694775E1,1.531966209E0,1.748564720E0,1.733225584E0
1.640688775E1,1.867816329E0,1.832753658E0,2.694500446E0
1.641687775E1,2.070243835E0,1.748415470E0,3.470487595E0
1.642687375E1,2.361022472E0,1.404950619E0,3.928267956E0
1.643690875E1,2.595987082E0,8.663988113E-1,3.833563566E0
1.644713175E1,3.080710173E0,7.547664642E-2,2.514489174E0
1.645692175E1,3.591299057E0,-8.134603500E-1,-3.514571190E-1
1.646685775E1,3.242178440E0,-1.150256157E0,-3.018398762E0
1.647698575E1,2.130583286E0,-1.290839195E0,-3.957758904E0
1.648687875E1,7.096745968E-1,-1.653858185E0,-3.355980396E0
1.649687875E1,-1.543480158E-1,-2.984664917E0,-2.328045368E-1
1.650682475E1,1.306741238E-1,-4.286045074E0,-6.645989418E-1
1.651686575E1,1.133385062E0,-5.326792717E0,-1.283951521E0
1.652689175E1,1.853160501E0,-6.342254639E0,1.439582825E0
1.653687375E1,1.692145228E0,-6.607496262E0,3.180010796E0
1.654688375E1,1.278835416E0,-6.418805122E0,3.282972574E0
1.655685275E1,1.010289311E0,-6.208968163E0,2.529651642E0
1.656687275E1,6.200777292E-1,-5.584395409E0,1.741834402E0
1.657686975E1,4.187359810E-1,-4.896681786E0,7.663099766E-1
1.658690975E1,5.981945992E-1,-4.525533676E0,-2.295989990E-1
1.659692575E1,7.486145496E-1,-4.048534393E0,-5.963912010E-1
1.660705475E1,7.971049547E-1,-3.318239212E0,-3.434557915E-1
1.661688775E1,1.089796901E0,-2.850706100E0,1.239981651E-1
1.662685575E1,1.419983506E0,-2.408773422E0,5.132797956E-1
1.663689475E1,1.698545933E0,-1.918085098E0,1.104700327E0
1.664697875E1,1.744241714E0,-1.193857193E0,1.378842115E0
1.665703175E1,1.788648725E0,-5.947456360E-1,1.373465657E0
1.666707975E1,1.705096364E0,-2.804727554E-1,1.615801573E0
1.667688075E1,1.488132715E0,-1.624221802E-1,1.957807541E0
1.668708075E1,1.237108946E0,-6.013584137E-2,1.946788073E0
1.669684275E1,8.582570553E-1,-2.227497101E-2,1.896643162E0
1.670683675E1,5.541259050E-1,5.319404602E-2,1.895682216E0
1.671685875E1,4.181644917E-1,1.071128845E-1,1.772973061E0
1.672715775E1,4.202094078E-1,2.558088303E-1,1.657521129E0
1.673690775E1,4.177360535E-1,4.205875397E-1,1.545459509E0
1.674687775E1,4.093087912E-1,6.564378738E-1,1.364289284E0
1.675790875E1,3.645914793E-1,8.844232559E-1,1.078365684E0
1.676690375E1,2.899811268E-1,1.214082718E0,8.059598804E-1
1.677684475E1,1.253627539E-1,1.639881134E0,4.607534409E-1
1.678687875E1,2.762198448E-3,2.100263596E0,1.217676103E-1
1.679685975E1,-1.668708324E-1,2.634785652E0,-9.772855043E-2
1.681136575E1,-8.427052498E-1,3.680481911E0,-2.462789416E-1
1.682686475E1,-1.008156419E0,4.372836113E0,-8.544659615E-2
1.683686575E1,-1.072383523E0,4.606766224E0,5.921787024E-2
1.684704475E1,-1.161951303E0,4.734099865E0,1.883902550E-1
1.685716075E1,-1.230994463E0,4.746349812E0,2.435679436E-1
1.686684775E1,-1.243944883E0,4.647078514E0,2.990969419E-1
1.687689075E1,-1.338992596E0,4.464036942E0,3.433715701E-1
1.688687875E1,-1.353798509E0,4.156257629E0,3.265524507E-1
1.689685275E1,-1.253047347E0,3.743999958E0,3.216670752E-1
1.690704675E1,-1.132564068E0,3.196866989E0,3.188666105E-1
1.691689975E1,-1.033962727E0,2.614053726E0,3.228063583E-1
1.692701775E1,-8.870903850E-1,2.012418747E0,2.917652130E-1
1.693685375E1,-6.078437567E-1,1.353575706E0,2.499895096E-1
1.694684975E1,-4.133901596E-1,6.651763916E-1,2.590740919E-1
1.695802575E1,-2.016818523E-2,-5.677127838E-2,2.471662760E-1
1.696686975E1,4.040755033E-1,-6.637029648E-1,2.238993645E-1
1.697686075E1,8.147984743E-1,-1.162658691E0,1.454968452E-1
1.698686075E1,1.218548059E0,-1.477243423E0,-2.236497402E-2
1.699683775E1,1.498152614E0,-1.636115074E0,-3.007814884E-1
1.700721075E1,1.658169627E0,-1.671506882E0,-6.567600369E-1
1.701691775E1,1.792462349E0,-1.602651596E0,-1.184085250E0
1.702701575E1,1.988488317E0,-1.450948715E0,-1.723101616E0
1.703691575E1,2.166683197E0,-1.195994377E0,-2.289805412E0
1.704684475E1,2.134817839E0,-7.605152130E-1,-2.842261791E0
1.705688075E1,2.079077244E0,-3.905401230E-1,-3.240642548E0
1.706686375E1,2.101874113E0,-1.207075119E-1,-3.683110476E0
1.707686775E1,2.009408474E0,2.335357666E-2,-4.070812225E0
1.708689275E1,1.906991243E0,7.208442688E-2,-4.360776901E0
1.709709975E1,1.815934420E0,3.161048889E-2,-4.745278358E0
1.710697175E1,1.733819008E0,-2.445716858E-1,-5.043710709E0
1.711681275E1,1.732484221E0,-6.923446655E-1,-4.765625954E0
1.712683475E1,1.873501420E0,-1.209156990E0,-4.192193985E0
1.713686575E1,2.141309261E0,-1.710877419E0,-3.522530079E0
1.714760975E1,2.361599922E0,-2.200387955E0,-2.869494677E0
1.715688475E1,2.523924351E0,-2.669688225E0,-2.419402122E0
1.716769975E1,2.700141430E0,-3.228423119E0,-2.065025806E0
1.717687275E1,2.950362444E0,-3.927546501E0,-1.744756341E0
1.718822975E1,3.297267914E0,-4.650828362E0,-1.313632250E0
1.719686175E1,3.490026474E0,-5.305354118E0,-8.385726213E-1
1.720717175E1,3.624155998E0,-5.744757652E0,-4.132312536E-1
1.721686275E1,3.557016611E0,-5.788973808E0,-1.385538578E-1
1.722713375E1,3.269149303E0,-5.412445068E0,1.309990883E-3
1.723686975E1,2.806977272E0,-4.734820366E0,-6.259083748E-3
1.724685875E1,2.225753307E0,-3.918655396E0,-5.198395252E-2
1.725701875E1,1.621471286E0,-3.118357658E0,-1.609246731E-1
1.726686675E1,1.065838099E0,-2.473301888E0,-1.961854696E-1
1.727687775E1,5.010826588E-1,-1.933282852E0,-3.171145916E-2
1.728685275E1,4.129087925E-2,-1.460314751E0,2.752397060E-1
1.729688175E1,-3.480914235E-1,-1.055008888E0,6.195979118E-1
1.730686675E1,-7.835276127E-1,-6.085605621E-1,9.855103493E-1
1.731686875E1,-1.337490201E0,-2.755775452E-1,1.247941971E0
1.732685175E1,-1.393489242E0,-7.362079620E-2,1.426008940E0
1.733685975E1,-1.511380792E0,5.531406403E-2,1.429261923E0
1.734698775E1,-1.471984625E0,2.116832733E-1,1.385077715E0
1.735689875E1,-1.465415478E0,2.127046585E-1,1.288889408E0
1.736699775E1,-1.509635925E0,2.149991989E-1,1.290349007E0
1.737704475E1,-1.663276672E0,2.463865280E-1,1.305993795E0
1.738697175E1,-1.782459736E0,2.614917755E-1,1.300292969E0
1.739684575E1,-1.933745623E0,2.651424408E-1,1.328945041E0
1.740695875E1,-1.803035378E0,3.277091980E-1,1.377582550E0
1.741686575E1,-1.482569218E0,5.600404739E-1,1.378029585E0
1.742709675E1,-1.307056427E0,1.014613152E0,1.370393515E0
1.743688975E1,-1.235578895E0,1.573211670E0,1.420050979E0
1.744685675E1,-1.205029726E0,2.121706963E0,1.403131366E0
1.745686975E1,-8.332139254E-1,2.371449471E0,1.200320363E0
1.746685875E1,9.184004068E-1,1.676400661E0,4.758662879E-1
1.747687975E1,2.506232977E0,8.644132614E-1,-7.277467251E-1
1.748684675E1,1.450451493E0,1.813508034E0,-1.486199021E0
1.749683275E1,9.771413803E-1,1.834153175E0,-2.099231720E0
1.750826775E1,-7.101061344E-1,3.433835983E0,-2.497918606E0
1.751692675E1,-2.244556904E0,5.113587379E0,-1.454035282E0
1.752687475E1,-2.501833439E0,5.529767036E0,-6.669721603E-1
1.753684275E1,-1.123864532E0,4.673889160E0,-5.044190884E-1
1.754697675E1,-2.739853263E-1,3.932249546E0,-7.276623249E-1
1.755694575E1,8.230490685E-1,3.312367916E0,-1.181943655E0
1.756682975E1,-4.730582237E-1,3.791062832E0,-1.278305054E-2
1.757690075E1,-1.063432455E0,3.372519970E0,2.639708519E-1
1.758699575E1,-9.812994003E-1,2.696657181E0,1.316423416E0
1.759682375E1,-1.307049394E0,1.924660683E0,2.147553921E0
1.760690875E1,-9.648005962E-1,7.079558372E-1,5.384489059E0
1.761687075E1,7.390618324E-3,3.011550903E-1,6.861553192E0
1.762703675E1,1.366549253E0,1.783099174E-1,4.036236763E0
1.763686875E1,2.402360678E0,1.437821388E-1,2.228861809E0
1.764688175E1,2.455125332E0,4.942936897E-1,1.471597672E0
1.765704575E1,1.797870398E0,1.001362801E0,8.245525360E-1
1.766685975E1,1.236042261E0,1.533391953E0,8.452315331E-1
1.767689275E1,6.707811356E-1,2.246489048E0,1.993596077E0
1.768685875E1,3.231173754E-1,2.774693489E0,3.208593845E0
1.769685175E1,1.521381140E-1,2.828098297E0,3.660961628E0
1.770733675E1,4.601322412E-1,2.322203636E0,3.370140076E0
1.771689675E1,9.090316296E-1,1.601265430E0,3.027856827E0
1.772688075E1,1.400975227E0,9.291563034E-1,3.024970531E0
1.773712075E1,1.673939824E0,6.139688492E-1,3.180580139E0
1.774687475E1,1.957534790E0,-3.360080719E-2,3.054009914E0
1.775709475E1,2.480257988E0,-7.771263123E-1,2.026992559E0
1.776685675E1,2.984776974E0,-1.191731453E0,4.932248592E-1
1.777682375E1,3.008216858E0,-1.152513504E0,-1.560792685E0
1.778712975E1,3.001935720E0,-1.346707344E0,-3.282117367E0
1.779690975E1,3.223823547E0,-1.855316162E0,-4.789574623E0
1.780700875E1,3.296778202E0,-2.672496796E0,-4.927864075E0
1.781689875E1,2.496660471E0,-3.721290588E0,-1.958405495E0
1.782707775E1,1.441555023E0,-4.227755547E0,-3.929769993E-1
1.783704275E1,1.158364773E0,-4.907876968E0,-4.512248039E-1
1.784702675E1,1.194520950E0,-5.342439651E0,-3.182821274E-1
1.785687175E1,1.136742473E0,-5.339025497E0,9.733775854E-1
1.786696975E1,1.282235384E0,-5.383481979E0,2.107004642E0
1.787687175E1,1.701542377E0,-5.151972771E0,2.281804562E0
1.788828275E1,1.551691771E0,-4.568811417E0,1.453439474E0
1.789706775E1,1.231715441E0,-3.928760529E0,6.175707579E-1
1.790688475E1,1.067207217E0,-3.612895966E0,5.009300709E-1
1.791681775E1,9.813814163E-1,-3.283218384E0,1.039655685E0
1.792700975E1,1.024263024E0,-2.624608994E0,1.301568389E0
1.793688075E1,9.686691761E-1,-1.706513405E0,9.985679984E-1
1.794702775E1,9.565680027E-1,-1.043189049E0,6.533932090E-1
1.795694775E1,8.032797575E-1,-6.622362137E-1,6.550427675E-1
1.796684575E1,5.637599230E-1,-3.943643570E-1,9.147977829E-1
1.797685775E1,4.202017784E-1,-2.534551620E-1,1.092827320E0
1.798691675E1,3.400776386E-1,-3.270969391E-1,1.210347891E0
1.799688075E1,1.195808649E-1,-5.889797211E-1,1.561786413E0
1.800700275E1,-1.891884804E-1,-8.231821060E-1,1.616279125E0
1.801686375E1,-1.333857775E-1,-1.065008163E0,1.719809055E0
1.802687775E1,-2.513647079E-1,-1.045166969E0,1.633915186E0
1.803687175E1,-4.991880655E-1,-8.449430466E-1,1.550979853E0
1.804693575E1,-5.756814480E-1,-5.845470428E-1,1.410053849E0
1.805689475E1,-6.071131229E-1,-2.494773865E-1,1.183009744E0
1.806686375E1,-6.306091547E-1,1.026496887E-1,9.530880451E-1
1.807689875E1,-7.257640362E-1,4.398431778E-1,6.211141348E-1
1.808683075E1,-9.552497864E-1,8.170814514E-1,3.062368631E-1
1.809689975E1,-1.245783567E0,1.225216866E0,2.351880074E-2
1.810681775E1,-1.370578766E0,1.629166603E0,-2.193138003E-1
1.811684875E1,-1.376627207E0,2.086265564E0,-3.761228621E-1
1.812684775E1,-1.495409608E0,2.616211414E0,-4.348451197E-1
1.813686975E1,-1.731204271E0,3.218609810E0,-5.272135735E-1
1.814686975E1,-1.820660949E0,3.738143921E0,-5.561836362E-1
1.815688375E1,-1.866205812E0,4.138195038E0,-4.741717577E-1
1.816685975E1,-1.923961163E0,4.422023773E0,-4.611655474E-1
1.817685575E1,-1.919966459E0,4.622047901E0,-4.684370160E-1
1.818686875E1,-1.791753292E0,4.732156277E0,-4.688385725E-1
1.819687775E1,-1.756793618E0,4.806024075E0,-4.636725187E-1
1.820689175E1,-1.716728568E0,4.815996170E0,-5.172977448E-1
1.821683075E1,-1.662790298E0,4.723600864E0,-6.178810596E-1
1.822683475E1,-1.504203439E0,4.469810963E0,-7.836099863E-1
1.823684475E1,-1.435216188E0,4.177992344E0,-9.544248581E-1
1.824693175E1,-1.300359845E0,3.691057682E0,-1.209291697E0
1.825689275E1,-9.847723842E-1,2.996923923E0,-1.359034538E0
1.826687775E1,-5.607758760E-1,2.174038887E0,-1.362564445E0
1.827691175E1,-1.207312346E-1,1.188797951E0,-1.313472748E0
1.828719175E1,3.535822630E-1,1.310358047E-1,-1.297909260E0
1.829691575E1,8.153020144E-1,-8.207960129E-1,-1.271029472E0
1.830694775E1,1.167685032E0,-1.649356842E0,-1.342789888E0
1.831685175E1,1.617783904E0,-2.405161858E0,-1.469241977E0
1.832700875E1,1.955514073E0,-2.966596603E0,-1.633606672E0
1.833686175E1,2.421229362E0,-3.482893944E0,-1.972006798E0
1.834687975E1,2.755427837E0,-3.743787766E0,-2.620345592E0
1.835770275E1,2.759367943E0,-3.525915146E0,-3.381636143E0
1.836687875E1,2.705560446E0,-3.042670250E0,-4.015986443E0
1.837688775E1,2.687073946E0,-2.527388573E0,-4.366341114E0
1.838692775E1,2.711197615E0,-2.229196548E0,-4.600562096E0
1.839686175E1,2.913322926E0,-2.312802315E0,-4.715796947E0
1.840780075E1,3.338360786E0,-2.798794746E0,-4.414405346E0
1.841685175E1,3.417746305E0,-2.938095093E0,-4.003150940E0
1.842689075E1,3.412723064E0,-3.013673782E0,-3.653987885E0
1.843688375E1,3.328766108E0,-3.160110474E0,-3.423442602E0
1.844699575E1,3.284464359E0,-3.361460686E0,-3.334226370E0
1.845685475E1,3.355268478E0,-3.748819351E0,-3.459013462E0
1.846686575E1,3.414443970E0,-4.080824852E0,-3.315792322E0
1.847707475E1,3.423283577E0,-4.335774422E0,-2.993968010E0
1.848691775E1,3.401575565E0,-4.564270020E0,-2.652842045E0
1.849691075E1,3.360928059E0,-4.708522797E0,-2.380704403E0
1.850692175E1,3.233086109E0,-4.659653664E0,-2.093697071E0
1.851688775E1,2.823612213E0,-4.281312943E0,-1.744033813E0
1.853098275E1,2.310318470E0,-3.685826302E0,-1.466926694E0
1.854692275E1,1.081234574E0,-2.187682152E0,-1.069837570E0
1.855704175E1,4.623687267E-1,-1.554947853E0,-6.996586323E-1
1.856687675E1,-1.749166250E-1,-1.006438255E0,-2.626649141E-1
1.857686675E1,-7.450988293E-1,-4.996099472E-1,2.559083700E-1
1.858687875E1,-1.403184175E0,-8.532810211E-2,7.485784292E-1
1.859687975E1,-1.960086823E0,1.629056931E-1,1.238760352E0
1.860716075E1,-2.151520014E0,2.175846100E-1,1.711121202E0
1.861698875E1,-2.009547949E0,1.509189606E-1,1.926674247E0
1.862698775E1,-1.750389338E0,8.125209808E-2,1.986764789E0
1.863691675E1,-1.685236216E0,7.448673248E-2,1.927018404E0
1.864744675E1,-1.631238937E0,5.939865112E-2,1.711639643E0
1.865687275E1,-1.738139391E0,1.196374893E-1,1.423406601E0
1.866806875E1,-1.979944229E0,2.953424454E-1,1.098114371E0
1.867687675E1,-2.083838463E0,4.232120514E-1,8.457318544E-1
1.868838375E1,-1.994297862E0,5.091438293E-1,6.856927276E-1
1.869689675E1,-1.872022271E0,6.577301025E-1,6.109480858E-1
1.870702875E1,-1.833427548E0,9.146223068E-1,5.494283438E-1
1.871694275E1,-1.825780153E0,1.282919884E0,5.517734289E-1
1.872699575E1,-1.831840038E0,1.684796810E0,5.982394814E-1
1.873712775E1,-1.778255939E0,2.116548061E0,7.233610153E-1
1.874693875E1,-1.810209513E0,2.603356838E0,8.675146103E-1
1.875686375E1,-1.873944640E0,3.090749741E0,1.017782450E0
1.876696675E1,-1.901808500E0,3.500582695E0,1.111867666E0
1.877879075E1,-2.049574375E0,3.807505608E0,1.138527155E0
1.878688075E1,-2.043588877E0,3.983479023E0,9.398083687E-1
1.879693675E1,-1.714600325E0,3.807125568E0,7.855500579E-1
1.880686875E1,1.906944513E0,6.177453995E-1,-8.522264957E-1
1.881753475E1,5.525883198E0,-3.990156174E0,-2.986322880E0
1.882752175E1,1.734812498E0,-6.763601303E-1,-3.983821869E0
1.883713575E1,-4.821619987E0,5.317498684E0,-2.660013437E0
1.884760875E1,-5.761580944E0,6.490337849E0,-2.338262796E0
1.885697075E1,-4.558553219E0,5.469188690E0,-1.873847485E0
1.886792675E1,-2.885666847E0,5.020249844E0,-6.388814449E-1
1.887688775E1,-1.084154606E0,4.166205406E0,-6.251263618E-1
1.888871275E1,4.282458425E-1,1.510435104E0,-5.661545753E0
1.889690375E1,4.757832885E-1,1.340011597E0,-5.321709156E0
1.890687575E1,-1.055059433E0,9.500856400E-1,-3.485916138E0
1.891682675E1,-2.409924030E0,7.314071655E-1,5.093584061E-1
1.892689175E1,-2.470394611E0,6.980133057E-2,6.312249184E0
1.893691575E1,-1.063259363E0,-4.726257324E-1,1.268645859E1
1.894687875E1,2.279316187E0,-8.913388252E-1,2.673597813E0
1.895873975E1,3.030045986E0,4.474954605E-1,-5.898141861E-2
1.896685575E1,1.642971277E0,1.390313148E0,-1.249997139E0
1.897692675E1,9.557178617E-1,2.327956676E0,3.847217560E-1
1.898710875E1,1.262444019E0,3.038733006E0,2.414451122E0
1.899690575E1,1.744566679E0,3.349398613E0,3.560620785E0
1.900683075E1,2.069992304E0,3.407476902E0,4.306221008E0
1.901686075E1,1.981230617E0,3.245539188E0,4.395430565E0
1.902705975E1,2.397856236E0,2.809565067E0,4.707299232E0
1.903686875E1,3.024538279E0,2.409512520E0,4.814409733E0
1.904684875E1,3.895473480E0,1.397264004E0,3.871104717E0
1.905687475E1,5.144165516E0,-1.175069809E-1,1.226518154E0
1.906685475E1,6.785012722E0,-1.724751472E0,-3.142759800E0
1.907685175E1,8.839986801E0,-3.296484947E0,-1.304239655E1
1.908685975E1,7.346030712E0,-3.142174721E0,-2.286475945E1
1.909684575E1,2.649263382E0,-4.387294769E0,-8.290480614E0
1.910685075E1,1.059685588E0,-5.154045105E0,3.678674698E0
1.911689175E1,1.235430002E0,-6.097423553E0,5.441256046E0
1.912685475E1,1.121502757E0,-6.629894257E0,5.110494137E0
1.913687975E1,8.607789278E-1,-6.758156776E0,4.816728115E0
1.914702975E1,8.587380648E-1,-6.675153732E0,3.081448793E0
1.915683375E1,6.175431013E-1,-6.490880966E0,-2.103672028E-1
1.916690175E1,-3.195276260E-1,-5.334967613E0,-3.759323597E0
1.917691775E1,-7.617477179E-1,-4.696516991E0,-2.929587841E0
1.918693875E1,-7.446411848E-1,-4.468931198E0,4.994862080E-1
1.919690475E1,-5.511425734E-1,-3.847529411E0,2.403518915E0
1.920707575E1,-6.286934614E-1,-2.703376770E0,2.620225191E0
1.921687675E1,-6.022175550E-1,-1.638429642E0,2.435181379E0
1.922685075E1,-4.255287647E-1,-9.122352600E-1,2.111788750E0
1.923753975E1,-2.298288345E-1,-4.139213562E-1,1.920630217E0
1.924696975E1,-2.880363464E-1,-5.367183685E-2,1.933532357E0
1.925688775E1,-3.835768700E-1,8.988475800E-2,1.862867713E0
1.926705975E1,-3.757636547E-1,-1.434450150E-1,1.728301525E0
1.927692475E1,-3.484828472E-1,-4.397373199E-1,1.702139497E0
1.928729875E1,-1.932200193E-1,-7.047281265E-1,1.538224339E0
1.929688275E1,-1.682155132E-1,-8.275651932E-1,1.330595732E0
1.930701275E1,5.238866806E-2,-1.041604042E0,1.087583661E0
1.931687275E1,1.740999222E-1,-9.593563080E-1,9.871721268E-1
1.932692675E1,-1.414990425E-2,-6.122598648E-1,8.406278491E-1
1.933868975E1,-2.245330811E-2,-2.718343735E-1,7.149865627E-1
1.934758375E1,-1.353311539E-1,2.088851929E-1,6.451765895E-1
1.935689375E1,-2.348353863E-1,6.487693787E-1,5.825561285E-1
1.936789075E1,-3.598945141E-1,1.050539017E0,4.834294021E-1
1.937697475E1,-3.395216465E-1,1.374267578E0,2.800631523E-1
1.938874575E1,-3.670115471E-1,2.076563358E0,-9.027123451E-2
1.939690775E1,-4.032053947E-1,2.065371990E0,-1.557949632E-1
1.940690575E1,-4.580881596E-1,2.375710011E0,-3.485112488E-1
1.941686775E1,-6.002154350E-1,2.710285187E0,-5.352408886E-1
1.942704475E1,-9.003834724E-1,3.031817436E0,-8.144114614E-1
1.943687775E1,-1.080667138E0,3.211596012E0,-9.596406221E-1
1.944691875E1,-1.277341723E0,3.387061596E0,-1.067657232E0
1.945688875E1,-1.363071084E0,3.500405788E0,-1.053429484E0
1.946685875E1,-1.358514905E0,3.496004581E0,-9.438508749E-1
1.947688275E1,-1.304596782E0,3.479007244E0,-9.268646836E-1
1.948687275E1,-1.362712502E0,3.541061878E0,-1.014286399E0
1.950013775E1,-1.444669724E0,3.559877396E0,-1.159434795E0
1.951686875E1,-1.504579306E0,3.523804188E0,-1.369345427E0
1.952687975E1,-1.487241268E0,3.485743523E0,-1.515945315E0
1.953687975E1,-1.473605752E0,3.407758713E0,-1.594322681E0
1.955056175E1,-1.355197310E0,3.205883026E0,-1.708281040E0
1.956689975E1,-8.076658249E-1,2.375920296E0,-1.838953257E0
1.957687075E1,-5.467646122E-1,1.878190517E0,-1.926837802E0
1.958688175E1,-3.091962337E-1,1.358903408E0,-1.954194069E0
1.959683475E1,-8.521795273E-3,8.443479538E-1,-1.887266874E0
1.960720375E1,3.311021328E-1,3.739366531E-1,-1.787280083E0
1.961683275E1,7.705428600E-1,-3.501892090E-2,-1.866615415E0
1.962699675E1,1.069370985E0,-2.647275925E-1,-1.979993105E0
1.963685175E1,1.389091015E0,-3.970050812E-1,-2.089632750E0
1.964689375E1,1.508824348E0,-3.360452652E-1,-1.997180700E0
1.965770875E1,1.392062187E0,-2.402753830E-1,-1.549519062E0
1.966693875E1,1.351854086E0,-1.627616882E-1,-1.208943248E0
1.967685375E1,1.158078432E0,-3.505325317E-2,-7.597388029E-1
1.968688275E1,9.228458405E-1,9.785461426E-2,-4.429243803E-1
1.969683875E1,7.535150051E-1,1.280612946E-1,-4.845195413E-1
1.970693275E1,5.054185390E-1,2.501945496E-1,-2.998775840E-1
1.971689975E1,3.433451653E-1,2.278356552E-1,-2.159720063E-1
1.972697475E1,3.401789665E-1,-5.071449280E-2,-3.334460855E-1
1.973686775E1,4.288759232E-1,-5.339984894E-1,-5.676602125E-1
1.974710075E1,5.962362289E-1,-1.041165352E0,-7.798355222E-1
1.975684675E1,9.971663952E-1,-1.743215561E0,-9.806413651E-1
1.976717175E1,1.289910078E0,-2.352703094E0,-1.093487263E0
1.977687575E1,1.612214327E0,-2.924489975E0,-1.176545024E0
1.978689375E1,1.936310053E0,-3.470730782E0,-1.267618418E0
1.979687975E1,2.231790304E0,-3.940320015E0,-1.265478492E0
1.980687475E1,2.498637438E0,-4.145483017E0,-1.081558824E0
1.981688175E1,2.616941214E0,-4.040017128E0,-7.776172161E-1
1.982694475E1,3.012171030E0,-4.118642807E0,-4.447498322E-1
1.983690975E1,3.563152075E0,-4.456097603E0,-6.676495075E-2
1.984753075E1,3.968641281E0,-4.694596291E0,4.598901868E-1
1.985689875E1,3.602239847E0,-4.372654915E0,1.029268265E0
1.986688775E1,2.534107208E0,-3.489253044E0,1.131980419E0
1.987688575E1,1.663053274E0,-2.807268143E0,1.469729424E0
1.988695775E1,1.349835396E0,-2.525518417E0,1.442630410E0
1.989689275E1,9.910235405E-1,-1.878011703E0,1.525774598E0
1.990699075E1,5.526435375E-1,-1.062570572E0,1.692878246E0
1.991690075E1,2.795386314E-2,-2.544288635E-1,1.885425568E0
1.992697675E1,-5.339131355E-1,4.932508469E-1,2.107877731E0
1.993690475E1,-9.962279797E-1,1.086894035E0,2.269345999E0
1.994697475E1,-1.334771633E0,1.420591831E0,2.366571426E0
1.995702675E1,-1.717876196E0,1.571124077E0,2.525049686E0
1.996690275E1,-2.102694035E0,1.656186104E0,2.504326344E0
1.997687875E1,-2.598836899E0,1.598944187E0,2.475064516E0
1.998689075E1,-3.158160448E0,1.398278236E0,2.476100683E0
1.999685575E1,-3.765202284E0,1.027430534E0,2.508146048E0
2.000707975E1,-4.154171944E0,3.765754700E-1,2.446076155E0
2.001690675E1,-4.219131947E0,-1.289831161E0,2.605096102E0
2.002724075E1,-4.361258507E0,-1.921875000E0,2.728167057E0
2.003837175E1,-4.624573231E0,-2.215516090E0,2.871155739E0
2.004694475E1,-4.969340324E0,-2.210407257E0,3.144365311E0
2.005690375E1,-5.219769955E0,-1.963947296E0,3.446502924E0
2.006683375E1,-5.369233131E0,-1.516774178E0,3.640384912E0
2.007687775E1,-5.356856823E0,-9.628334045E-1,3.871187449E0
2.008684175E1,-5.305984020E0,-3.459634781E-1,3.982471466E0
2.009685275E1,-5.237946510E0,2.036299706E-1,4.099662781E0
2.010682675E1,-5.065525532E0,6.616935730E-1,4.281981945E0
2.011681975E1,-4.888751984E0,9.842000008E-1,4.408848286E0
2.012701975E1,-4.736025810E0,1.137549877E0,4.538807392E0
2.013694275E1,-4.601895809E0,1.177203655E0,4.728184223E0
2.014704775E1,-4.382159710E0,1.135637283E0,4.816717625E0
2.015684575E1,-4.061032772E0,9.983062744E-1,4.733259201E0
2.016692375E1,-3.771845579E0,7.527351379E-1,4.503939152E0
2.017686275E1,-3.388795376E0,3.709926605E-1,4.363092899E0
2.018684675E1,-3.062970161E0,2.388811111E-2,4.208365440E0
2.019683775E1,-2.716506481E0,-2.538189888E-1,4.109100819E0
2.020684875E1,-2.363453150E0,-4.982943535E-1,3.986396790E0
2.021686275E1,-2.007004976E0,-6.199359894E-1,3.917394638E0
2.022710875E1,-1.671494246E0,-6.446037292E-1,3.898599148E0
2.023684875E1,-1.281967163E0,-6.084156036E-1,3.865939617E0
2.024702575E1,-8.742063046E-1,-6.238813400E-1,3.761514664E0
2.025685675E1,-4.765605927E-1,-6.323585510E-1,3.594913721E0
2.026684675E1,-2.751934528E-1,-5.013751984E-1,3.302586079E0
2.027689975E1,-2.463116646E-1,-3.001317978E-1,2.833506107E0
2.028691275E1,4.357814789E-3,-6.511497498E-2,1.483859539E0
2.029689075E1,8.586490154E-1,7.065014839E-1,-3.253235579E0
2.030684975E1,8.665032387E-1,1.136135101E0,-6.356657505E0
2.031684375E1,1.064487934E0,3.302516937E-1,-6.534740925E0
2.032701975E1,1.493776798E0,-3.167247772E-1,-6.363455296E0
2.033701575E1,1.761405230E0,-1.846590042E-1,-6.291033745E0
2.034684575E1,1.905687332E0,9.948105812E-1,-8.370468140E0
2.035684075E1,3.469619274E0,-2.881774902E-1,-1.072259808E1
2.036697175E1,3.710146189E0,-2.041810036E0,-8.566162109E0
2.037685875E1,1.803729296E0,-1.189311028E0,-3.855199337E0
2.038823875E1,7.345688343E-1,-4.836606979E-1,-1.225688934E0
2.039684575E1,6.371157169E-1,-4.478788376E-1,-1.133537292E-1
2.040715575E1,1.303199291E0,-1.103172302E0,1.956262589E-1
2.041691575E1,1.845181465E0,-1.964675903E0,7.062666416E-1
2.042691275E1,1.794230938E0,-2.986109734E0,2.069016695E0
2.043687575E1,1.700682402E0,-4.316147804E0,3.448014975E0
2.044694375E1,1.657432556E0,-5.728319168E0,4.326623917E0
2.045688375E1,1.851008415E0,-7.165844917E0,4.867913723E0
2.046684475E1,1.738835812E0,-8.536154747E0,5.044326305E0
2.047683575E1,1.432267666E0,-9.174699783E0,5.129207611E0
2.048689575E1,6.181240082E-1,-8.639861107E0,4.861865044E0
2.049700075E1,-4.962615967E-1,-6.546494484E0,4.140636921E0
2.050689875E1,-1.601641893E0,-3.802570343E0,3.574945927E0
2.051686775E1,-2.214726448E0,-1.454438210E0,3.281617880E0
2.052721575E1,-2.349718094E0,2.678785324E-1,3.145337343E0
2.053688975E1,-2.351185083E0,1.492707729E0,3.044191837E0
2.054694575E1,-2.506735325E0,2.296050549E0,3.291107416E0
2.055682975E1,-3.003853798E0,2.981767654E0,3.477769852E0
2.056697675E1,-3.080519915E0,2.879231453E0,3.676682234E0
2.057689575E1,-2.833741188E0,2.304720879E0,4.020300388E0
2.058697675E1,-2.509408474E0,1.505448818E0,4.484489441E0
2.059698175E1,-2.302797318E0,7.558975220E-1,4.900903225E0
2.060687475E1,-2.100522041E0,-8.611679077E-4,5.202434540E0
2.061693575E1,-2.025641918E0,-7.616462708E-1,5.446128368E0
2.062688675E1,-2.069115639E0,-1.419798851E0,5.632795334E0
2.063693875E1,-2.141502142E0,-1.849407196E0,5.697378159E0
2.064684875E1,-2.055364370E0,-2.025039673E0,5.698643684E0
2.065702175E1,-1.910422325E0,-1.788995743E0,5.632716179E0
2.066686675E1,-1.821513891E0,-1.261979103E0,5.359139919E0
2.067685975E1,-1.667747259E0,-7.478570938E-1,4.964400291E0
2.068683575E1,-1.474331617E0,-3.325891495E-1,4.540150642E0
2.069692875E1,-1.313125372E0,-4.079914093E-2,4.241808891E0
2.070687275E1,-1.150921106E0,1.714801788E-1,3.910373449E0
2.071686375E1,-1.043821812E0,3.947048187E-1,3.598308325E0
2.072691075E1,-9.515178204E-1,6.060762405E-1,3.336306572E0
2.073712775E1,-7.495663166E-1,6.888198853E-1,3.205040932E0
2.074685575E1,-5.622940063E-1,8.267660141E-1,3.133394241E0
2.075684575E1,-4.788408279E-1,9.684638977E-1,3.100856304E0
2.076695975E1,-3.933949471E-1,1.044304848E0,3.032088280E0
2.077703975E1,-2.595264912E-1,1.055144787E0,2.919080496E0
2.078699875E1,-1.298649311E-1,1.079792976E0,2.769540310E0
2.079686575E1,-3.023600578E-2,1.116345882E0,2.608773947E0
2.080684875E1,1.073682308E-1,1.123357296E0,2.471024036E0
