"Time (s)","Linear Acceleration x (m/s^2)","Linear Acceleration y (m/s^2)","Linear Acceleration z (m/s^2)"
6.462189600E-2,-2.011716366E-1,6.141591072E-1,6.256885529E-1
7.752239600E-2,-2.815003395E-1,5.362420082E-1,-2.030825615E-1
8.891964600E-2,-1.701700687E-1,4.775843620E-1,-5.490446091E-1
9.960277100E-2,2.495741844E-2,5.996885300E-1,1.718378067E-2
1.099623330E-1,-1.450309753E-1,9.085407257E-1,7.306561470E-1
1.211941140E-1,-7.567493916E-1,9.911403656E-1,1.457296371E0
1.307345050E-1,-1.987240314E-1,4.425344467E-1,2.057541370E0
1.404917000E-1,-4.005732536E-1,4.218559265E-1,1.865187168E0
1.503632980E-1,-6.239423752E-1,8.108396530E-1,5.457835197E-1
1.603545970E-1,-4.137270451E-1,1.045297146E0,1.601778984E0
1.703072460E-1,-2.682447433E-2,1.177571774E0,1.814549923E0
1.803505710E-1,2.122330666E-2,1.091041565E0,6.562318802E-1
1.906197330E-1,2.435492277E-1,8.923187256E-1,-7.379150391E-2
2.004563140E-1,5.400834084E-1,8.664431572E-1,-2.106633186E-1
2.103481050E-1,7.480211258E-1,9.056358337E-1,3.689479828E-1
2.203430000E-1,7.672925591E-1,8.523087502E-1,9.423518181E-1
2.302954480E-1,7.870575190E-1,1.000776768E0,1.011955738E0
2.402781720E-1,7.208682895E-1,9.121189117E-1,1.202677250E0
2.502510340E-1,7.674567103E-1,3.977823257E-1,1.626173019E0
2.602479650E-1,4.607846737E-1,-6.234965324E-1,3.317016602E0
2.702419300E-1,3.251735210E0,-1.160951614E0,2.236653328E0
2.802424130E-1,2.001664162E0,-2.798109531E0,1.842326164E0
2.902436540E-1,1.397894502E0,-3.002226114E0,1.270941257E0
3.002912750E-1,2.495808840E0,-1.788464069E0,1.567571163E0
3.102665850E-1,7.212859392E-1,-1.224477291E0,1.637710571E0
3.202582400E-1,-4.661492109E-1,-1.195265293E0,1.430162430E0
3.302580680E-1,-6.362092495E-1,-5.975775719E-1,9.544658661E-1
3.402609820E-1,-6.758025885E-1,-2.276101112E-1,1.335471153E0
3.503529390E-1,-1.102498770E0,-1.820311546E-1,1.518208504E0
3.603099170E-1,-1.236442804E0,-1.343531609E-1,1.158061028E0
3.702714060E-1,-1.389684916E0,1.528897285E-1,9.144210815E-1
3.802581510E-1,-1.565645218E0,3.570113182E-1,5.715465546E-1
3.904770230E-1,-1.806520224E0,4.667878151E-1,1.479148865E-2
4.004204590E-1,-1.720657349E0,6.690998077E-1,-5.119175911E-1
4.103461770E-1,-1.146808624E0,1.305172920E0,-6.557989120E-1
4.203835360E-1,-6.652045250E-1,1.301308632E0,-1.025196075E0
4.303257160E-1,-7.285650373E-1,9.216904640E-1,-1.949273586E0
4.403548060E-1,-3.249189854E-1,1.062333584E0,-2.792663574E0
4.504083510E-1,1.467663497E-1,9.582586288E-1,-3.077110767E0
4.603491230E-1,1.074669659E-1,7.557477951E-1,-2.799531937E0
4.704515090E-1,1.742706746E-1,7.671852112E-1,-2.381099701E0
4.803647020E-1,2.250491828E-1,7.769713402E-1,-1.917046547E0
4.903177990E-1,2.306727171E-1,1.012449265E-1,-1.502621174E0
5.002953470E-1,6.244900227E-1,-3.598403931E-1,-1.165718555E0
5.105006210E-1,7.883421779E-1,-1.728129387E-1,-7.611541748E-1
5.210052580E-1,7.703014016E-1,-7.548885345E-1,-6.724295616E-1
5.306605770E-1,8.267605305E-1,-9.813783169E-1,-8.336806297E-1
5.404637360E-1,8.854563236E-1,-1.008757830E0,-1.037646294E0
5.503928160E-1,8.459920287E-1,-1.291887760E0,-1.039987564E0
5.604543560E-1,9.443173409E-1,-1.283023834E0,-7.940516472E-1
5.703521260E-1,8.193895817E-1,-1.081703901E0,-6.697692871E-1
5.803195110E-1,1.590716541E-1,-5.836019516E-1,-8.337454796E-1
5.903847030E-1,-8.108558059E-1,3.567657471E-1,-5.849313736E-1
6.003562990E-1,-1.448338032E0,9.374694824E-1,-2.936706543E-1
6.104060970E-1,-1.641561985E0,1.332673550E0,-3.764877319E-1
6.203434960E-1,-1.350255847E0,1.281576157E0,-9.044246674E-1
6.303066960E-1,-1.104221821E0,1.098838329E0,-1.691218376E0
6.403937960E-1,-9.411857128E-1,1.197503567E0,-2.199837685E0
6.503873460E-1,-8.124277592E-1,1.219143867E0,-2.250186920E0
6.603501210E-1,-9.045811296E-1,1.400389194E0,-1.796635151E0
6.703690080E-1,-9.426513314E-1,1.610149860E0,-1.377319813E0
6.804699520E-1,-7.180434465E-1,1.464694500E0,-1.206912041E0
6.903964240E-1,-5.495509505E-1,1.175236225E0,-1.589046955E0
7.003441600E-1,-4.430492520E-1,1.195091248E0,-2.056257248E0
7.103155280E-1,-1.494488716E-1,1.222403049E0,-2.132312298E0
7.203027120E-1,-1.595554352E-1,1.061479092E0,-1.759490490E0
7.303118040E-1,-2.948232889E-1,1.220318794E0,-1.005475044E0
7.403378500E-1,-3.363385797E-1,1.230068684E0,-5.753312111E-1
7.503348730E-1,-3.841165304E-1,1.233313084E0,-6.208167076E-1
7.603098840E-1,-3.494285643E-1,1.294909000E0,-6.639661789E-1
7.703263900E-1,-2.749248743E-1,1.376255989E0,-7.107100487E-1
7.803156430E-1,-4.045153558E-1,1.565262318E0,-1.050579548E0
7.903152690E-1,-4.846468270E-1,1.726124287E0,-9.526662827E-1
8.003065820E-1,-5.576200485E-1,1.896340847E0,-6.781821251E-1
8.103287390E-1,-5.646871328E-1,2.037482262E0,-3.760824203E-1
8.206118170E-1,-5.295437574E-1,2.045033455E0,-1.346588135E-1
8.305478560E-1,-5.394685864E-1,2.042217731E0,2.599811554E-1
8.405138760E-1,-4.983411431E-1,2.123262882E0,8.375425339E-1
8.504278860E-1,-6.196947098E-1,2.227593422E0,1.445499420E0
8.604318910E-1,-7.092667818E-1,2.301899910E0,1.557532310E0
8.703808930E-1,-6.104849577E-1,2.359690189E0,1.556152344E0
8.804563940E-1,-4.756439924E-1,2.350243568E0,1.386476517E0
8.903791450E-1,-4.386625588E-1,2.389891148E0,1.093335152E0
9.003245200E-1,-5.337336659E-1,2.419600964E0,7.732048035E-1
9.103172080E-1,-7.107828856E-1,2.400408268E0,5.024137497E-1
9.203840520E-1,-9.008349180E-1,2.189458847E0,3.582563400E-1
9.304029740E-1,-1.058528662E0,1.809975147E0,4.062442780E-1
9.403609350E-1,-1.199305534E0,1.139309406E0,5.005292892E-1
9.503504150E-1,-1.357878804E0,3.643455505E-1,6.847295761E-1
9.603671550E-1,-1.422153592E0,-3.042745590E-1,1.048749924E0
9.703375250E-1,-1.374138355E0,-7.773191929E-1,1.348176003E0
9.803352100E-1,-1.239071369E0,-1.284355164E0,1.718260765E0
9.903300530E-1,-1.006248355E0,-1.565675020E0,1.926985741E0
1.000367974E0,-8.290514350E-1,-1.455841780E0,1.957065582E0
1.010386435E0,-7.557569742E-1,-1.360844374E0,1.909954071E0
1.020487665E0,-5.799582005E-1,-1.216900349E0,1.784724236E0
1.030429280E0,-4.600060880E-1,-1.010731936E0,1.373592377E0
1.040368588E0,-4.323852062E-1,-7.257032394E-1,6.350879669E-1
1.050466742E0,-4.575548768E-1,-4.267892838E-1,-2.544898987E-1
1.060377319E0,-7.171335816E-1,-1.210951805E-1,-9.410667419E-1
1.070343107E0,-9.846191406E-1,1.853551865E-1,-1.403803349E0
1.080318501E0,-1.143275738E0,4.024257660E-1,-1.821031094E0
1.090324698E0,-1.292667150E0,5.492835045E-1,-2.218214989E0
1.100318297E0,-1.344221473E0,5.662083626E-1,-2.568616867E0
1.110310096E0,-1.222855449E0,3.891625404E-1,-2.759087563E0
1.120294496E0,-1.020664692E0,1.332845688E-1,-2.840503693E0
1.130788196E0,-7.818904519E-1,-2.088446617E-1,-2.805037498E0
1.143550546E0,-5.927485228E-1,-4.650239944E-1,-2.641034603E0
1.160335896E0,-6.221951246E-1,-5.681519508E-1,-2.377829552E0
1.170819896E0,-6.783503890E-1,-6.203370094E-1,-1.985706329E0
1.181204896E0,-6.990090609E-1,-6.222839355E-1,-1.419268608E0
1.190305896E0,-6.612662077E-1,-6.373820305E-1,-1.054860592E0
1.200289896E0,-5.911880136E-1,-6.620297432E-1,-9.633855820E-1
1.210330896E0,-4.842283130E-1,-6.035223007E-1,-9.945497513E-1
1.220348896E0,-4.268075824E-1,-4.445428848E-1,-9.682726860E-1
1.230317896E0,-4.842517376E-1,-2.771816254E-1,-9.473500252E-1
1.240314896E0,-5.875228047E-1,-7.060623169E-2,-9.541611671E-1
1.250329896E0,-6.347358823E-1,9.726619720E-2,-1.118937016E0
1.260326896E0,-5.854191184E-1,1.721224785E-1,-1.318131924E0
1.271213896E0,-4.872620404E-1,2.444658279E-1,-1.580453396E0
1.280945896E0,-4.265533090E-1,3.298106194E-1,-1.913453102E0
1.290633896E0,-4.010682702E-1,4.179434776E-1,-2.292797089E0
1.300338896E0,-3.931787908E-1,5.004792213E-1,-2.526762962E0
1.310333896E0,-4.649633169E-1,6.378064156E-1,-2.558335781E0
1.320635896E0,-8.024284840E-1,1.164044380E0,-2.168320179E0
1.331093896E0,-1.043119907E0,1.259279251E0,-1.548157215E0
1.340302896E0,-1.230532885E0,1.208135128E0,-1.226808548E0
1.350434896E0,-1.254233122E0,1.257341385E0,-9.029273987E-1
1.360324896E0,-1.326505661E0,1.448815823E0,-3.023653030E-1
1.370335896E0,-1.338270903E0,1.434471130E0,5.030059814E-2
1.380314896E0,-1.169730067E0,1.316339016E0,2.455997467E-1
1.391342896E0,-9.600043297E-1,1.351231575E0,4.806385040E-1
1.400310896E0,-5.813831687E-1,1.182345390E0,6.614017487E-1
1.410333896E0,-1.657940894E-1,1.018588543E0,5.937128067E-1
1.420351896E0,1.653411686E-1,7.901906967E-1,8.410377502E-1
1.430391896E0,8.920760453E-2,6.434750557E-1,1.128807068E0
1.440756896E0,-5.138020962E-3,8.447332382E-1,1.546079636E0
1.450279896E0,9.697759748E-1,1.704072952E0,1.692719460E0
1.460315896E0,7.791339159E-1,1.887604713E0,1.949388504E0
1.470597896E0,3.430593610E-1,1.820553780E0,2.101422310E0
1.482844896E0,-3.196801245E-2,1.739466190E0,1.990943909E0
1.500302896E0,-3.723330498E-1,1.606786251E0,1.334860802E0
1.512469896E0,-4.154036343E-1,1.477595806E0,1.173059464E0
1.530361896E0,-1.077542007E-1,1.105273247E0,1.298354149E0
1.540365896E0,1.601162553E-1,9.570360184E-1,1.532591820E0
1.550382896E0,4.847283065E-1,8.029704094E-1,1.730095863E0
1.560428896E0,8.707025051E-1,6.084737778E-1,1.835889816E0
1.570305896E0,1.308653831E0,2.711615562E-1,1.833537102E0
1.580324896E0,1.654323339E0,-1.128501892E-1,1.804121017E0
1.590471896E0,1.781556010E0,-4.012966156E-1,1.668870926E0
1.600343896E0,1.741357327E0,-6.474294662E-1,1.542091370E0
1.610486896E0,1.724186063E0,-8.817143440E-1,1.397168159E0
1.620342896E0,1.708223820E0,-1.167176008E0,1.140978813E0
1.630327896E0,1.567649722E0,-1.456164122E0,7.535247803E-1
1.640330896E0,1.156793594E0,-1.632972002E0,4.338016510E-1
1.650293896E0,5.774585009E-1,-1.626967907E0,3.911771774E-1
1.660315896E0,-1.587504148E-2,-1.562162876E0,2.731523514E-1
1.670783896E0,-6.072355509E-1,-1.407154799E0,4.958152771E-2
1.680428896E0,-1.046564341E0,-1.256367445E0,-2.270717621E-1
1.690343896E0,-1.193043590E0,-1.193242311E0,-5.824747086E-1
1.700282896E0,-1.040192962E0,-1.120821953E0,-9.250159264E-1
1.710808896E0,-6.966104507E-1,-1.129813910E0,-1.209758759E0
1.724284896E0,2.938184738E-1,-1.093981981E0,-1.610957146E0
1.740335896E0,6.959990859E-1,-1.066161156E0,-1.582095146E0
1.750356896E0,1.023311615E0,-1.074409962E0,-1.516851902E0
1.760381896E0,1.191922426E0,-1.038194180E0,-1.374646187E0
1.772037896E0,1.183274031E0,-9.879443645E-1,-8.177990913E-1
1.780460896E0,9.821611047E-1,-9.999153614E-1,-8.177990913E-1
1.790997896E0,7.149875760E-1,-9.725618362E-1,-7.137298584E-1
1.804629896E0,1.738351285E-1,-1.026840448E0,-8.017153740E-1
1.820380896E0,4.858562350E-2,-1.019526482E0,-9.616189003E-1
1.830329896E0,-1.587168872E-1,-9.137985706E-1,-1.203099728E0
1.840465896E0,-2.880774736E-1,-7.458422184E-1,-1.522745609E0
1.850411896E0,-3.038549423E-1,-6.368122101E-1,-1.687528133E0
1.861302896E0,-2.590670586E-1,-3.575372696E-1,-1.643104076E0
1.872369896E0,-2.006030679E-1,-2.391843796E-1,-1.615820408E0
1.881228896E0,-1.295731664E-1,-9.537458420E-2,-1.593345642E0
1.891256896E0,-1.280224323E-2,4.645061493E-2,-1.370954990E0
1.901076896E0,2.133354545E-1,1.503648758E-1,-1.255141735E0
1.910342896E0,4.747308195E-1,2.357110977E-1,-1.197784424E0
1.921477896E0,7.489654422E-1,3.426742554E-1,-1.014148712E0
1.930315896E0,9.065754414E-1,4.680271149E-1,-8.378043175E-1
1.940324896E0,9.937877655E-1,5.939416885E-1,-5.731163025E-1
1.950371896E0,1.002662539E0,5.801501274E-1,-2.593326569E-2
1.960319896E0,8.634935617E-1,4.925627708E-1,4.375114441E-1
1.970354896E0,6.043523550E-1,3.812046051E-1,6.947574615E-1
1.980316896E0,2.695372999E-1,2.956929207E-1,8.081836700E-1
1.990417896E0,-2.303615212E-2,3.029918671E-1,8.156175613E-1
2.000624896E0,-2.767753601E-1,3.669795990E-1,7.625370026E-1
2.010325896E0,-4.502276480E-1,4.780063629E-1,7.529668808E-1
2.020352896E0,-5.851322412E-1,5.774741173E-1,8.815345764E-1
2.031089896E0,-7.371184826E-1,6.622023582E-1,1.177664757E0
2.040339896E0,-8.674562573E-1,6.972446442E-1,1.600405693E0
2.053409896E0,-9.298523664E-1,6.992516518E-1,2.167662621E0
2.070406896E0,-8.613179326E-1,6.486058235E-1,2.888586044E0
2.082312896E0,-7.549961805E-1,5.607376099E-1,2.990424156E0
2.092036896E0,-6.111662388E-1,4.899010658E-1,2.908631325E0
2.100345896E0,-6.169305444E-1,5.275182724E-1,2.646565437E0
2.110269896E0,-7.466542721E-1,6.072235107E-1,2.308246613E0
2.120446896E0,-8.650650978E-1,6.352481842E-1,1.900566101E0
2.130273896E0,-8.786233664E-1,5.589694977E-1,1.660024643E0
2.140321896E0,-7.944922447E-1,3.730363846E-1,1.532084465E0
2.150542896E0,-5.316122770E-1,6.835651398E-2,1.373061180E0
2.160289896E0,-2.395057380E-1,-3.036532402E-1,1.263951302E0
2.170302896E0,-4.229300469E-2,-6.117267609E-1,1.208503723E0
2.180334896E0,2.719692700E-2,-8.204364777E-1,1.103773117E0
2.190332896E0,5.916096270E-4,-9.382328987E-1,8.596611023E-1
2.200275896E0,-1.045822203E-1,-1.021594763E0,5.973005295E-1
2.210283896E0,-2.983205318E-1,-1.054764986E0,3.440380096E-1
2.220400896E0,-4.987460971E-1,-1.035539150E0,4.661750793E-2
2.230487896E0,-6.375486851E-1,-1.097572088E0,-2.611722946E-1
2.240304896E0,-7.592384815E-1,-1.196364880E0,-5.334563255E-1
2.251347896E0,-9.416500330E-1,-1.200738430E0,-7.373523712E-1
2.260452896E0,-1.100601315E0,-1.174541235E0,-9.759097099E-1
2.270285896E0,-1.238898754E0,-1.142010927E0,-1.079442978E0
2.280375896E0,-1.396228194E0,-1.099291086E0,-9.405808449E-1
2.290314896E0,-1.261794209E0,-1.037921429E0,-8.754868507E-1
2.300331896E0,-1.160081148E0,-1.207037210E0,-6.941599846E-1
2.310353896E0,-9.917316437E-1,-1.357237816E0,-4.247159958E-1
2.320301896E0,-7.862734199E-1,-1.495501518E0,-3.368148804E-1
2.330308896E0,-5.781261921E-1,-1.611557961E0,-4.288749695E-1
2.340375896E0,-3.627466559E-1,-1.658403635E0,-6.000447273E-1
2.350367896E0,-2.079539597E-1,-1.660953522E0,-7.681331635E-1
2.360328896E0,-1.232671142E-1,-1.551406384E0,-9.117984772E-1
2.370335896E0,-8.073866367E-2,-1.390233755E0,-1.044863224E0
2.380304896E0,-3.749939799E-2,-1.345309734E0,-1.011226177E0
2.390298896E0,-9.355527163E-2,-1.345636368E0,-9.469981194E-1
2.400291896E0,-2.740735412E-1,-1.294992447E0,-9.439134598E-1
2.410279896E0,-6.399666667E-1,-1.303754330E0,-8.806943893E-1
2.420307896E0,-8.147963881E-1,-1.220682859E0,-9.374175072E-1
2.430416896E0,-9.350245595E-1,-1.098649263E0,-9.904136658E-1
2.440291896E0,-9.335015416E-1,-9.747407436E-1,-9.191355705E-1
2.450311896E0,-8.116275668E-1,-8.241109848E-1,-7.951560020E-1
2.460366896E0,-5.906018615E-1,-6.679100990E-1,-7.676925659E-1
2.470334896E0,-3.592292666E-1,-5.411195755E-1,-7.415909767E-1
2.480304896E0,-1.729611158E-1,-4.248414040E-1,-6.938767433E-1
2.490312896E0,-1.169103384E-1,-3.157606125E-1,-7.303867340E-1
2.500634896E0,-1.991352141E-1,-1.665835381E-1,-8.443312645E-1
2.510484896E0,-3.746562600E-1,1.948261261E-2,-9.455246925E-1
2.520644896E0,-5.681125522E-1,1.912789345E-1,-9.886336327E-1
2.530283896E0,-7.037488222E-1,2.901492119E-1,-8.766937256E-1
2.540343896E0,-6.667748690E-1,3.180918694E-1,-6.379656792E-1
2.550349896E0,-5.066599846E-1,3.172044754E-1,-3.609209061E-1
2.560297896E0,-3.174073696E-1,2.629818916E-1,-4.585552216E-2
2.570488896E0,-9.944207966E-2,2.622976303E-1,3.422975540E-1
2.580344896E0,-8.500844240E-3,3.154668808E-1,7.281169891E-1
2.590294896E0,3.966075182E-2,3.790755272E-1,1.159357071E0
2.600323896E0,4.334010929E-2,4.199867249E-1,1.759283066E0
2.610293896E0,-1.410809532E-2,3.738174438E-1,2.208151817E0
2.620394896E0,-1.694420129E-1,2.890715599E-1,2.556293488E0
2.630366896E0,-3.728159070E-1,2.392253876E-1,2.850194931E0
2.640336896E0,-5.653887987E-1,2.254695892E-1,3.136852264E0
2.650303896E0,-8.041628003E-1,3.739032745E-1,3.245544434E0
2.660398896E0,-9.505685568E-1,5.756177902E-1,3.222479820E0
2.670312896E0,-1.010868669E0,7.187471390E-1,3.129158974E0
2.680328896E0,-9.422072768E-1,7.747001648E-1,3.022750854E0
2.690280896E0,-7.195622325E-1,9.245018959E-1,3.049739838E0
2.700353896E0,-3.918629885E-1,1.147350311E0,3.197207451E0
2.711518896E0,2.080709338E-1,1.016727924E0,3.284070969E0
2.720323896E0,9.188764691E-1,5.132193565E-1,3.385031700E0
2.730273896E0,1.403586268E0,-1.249933243E-2,3.252206802E0
2.740318896E0,1.686422467E0,-4.867000580E-1,2.812310219E0
2.750307896E0,1.949717045E0,-1.010609865E0,2.323535919E0
2.760306896E0,2.026995659E0,-1.386057854E0,1.849370956E0
2.770303896E0,1.816454053E0,-1.484890699E0,1.396685600E0
2.780283896E0,1.390030742E0,-1.478094578E0,1.026377678E0
2.790314896E0,8.878266811E-1,-1.480106354E0,7.037124634E-1
2.800372896E0,3.892049789E-1,-1.518611670E0,5.375900269E-1
2.810375896E0,-1.657697000E-2,-1.514494181E0,4.171667099E-1
2.820693896E0,-3.635823131E-1,-1.453077078E0,8.203125000E-2
2.830310896E0,-5.627405047E-1,-1.444185495E0,-3.386249542E-1
2.840401896E0,-6.114354134E-1,-1.421344757E0,-7.880601883E-1
2.851289896E0,-4.755426049E-1,-1.445525408E0,-1.088385105E0
2.860307896E0,-1.642160267E-1,-1.491203308E0,-1.232113361E0
2.870705896E0,1.838436723E-1,-1.531158686E0,-1.287142277E0
2.880367896E0,5.453990698E-1,-1.574842691E0,-1.209742546E0
2.890283896E0,7.893103361E-1,-1.536926270E0,-1.081946373E0
2.900322896E0,9.138378501E-1,-1.480752230E0,-1.044895649E0
2.910306896E0,9.841032624E-1,-1.500396490E0,-1.046000004E0
2.920313896E0,1.009920359E0,-1.569862127E0,-1.159084320E0
2.930774896E0,9.853275418E-1,-1.598701000E0,-1.318825245E0
2.940373896E0,8.571580648E-1,-1.503128767E0,-1.717809200E0
2.950346896E0,5.599879026E-1,-1.203100204E0,-1.712666988E0
2.960332896E0,4.555329978E-1,-1.141115427E0,-1.717584133E0
2.970283896E0,2.787897289E-1,-1.051116705E0,-1.799177170E0
2.980321896E0,8.763203025E-2,-9.278447628E-1,-1.891714573E0
2.990304896E0,-1.009107679E-1,-8.585426807E-1,-2.013801575E0
3.000347896E0,-2.708823979E-1,-7.560148239E-1,-2.179152012E0
3.010447896E0,-3.126086891E-1,-5.983576775E-1,-2.212753296E0
3.020285896E0,-2.059470862E-1,-4.745731354E-1,-2.058750153E0
3.030402896E0,-8.233922720E-2,-3.245625496E-1,-1.926874161E0
3.040360896E0,1.566818357E-2,-1.384110451E-1,-1.721006870E0
3.050279896E0,1.109834909E-1,2.630567551E-2,-1.448831558E0
3.060288896E0,2.242206633E-1,1.817932129E-1,-1.152387619E0
3.071557896E0,3.293881714E-1,3.470435143E-1,-8.777589798E-1
3.080368896E0,4.829157889E-1,4.667181969E-1,-5.446577072E-1
3.090306896E0,6.549185514E-1,5.270681381E-1,-6.170558929E-2
3.100274896E0,7.707803249E-1,6.154861450E-1,2.899131775E-1
3.110327896E0,7.854999304E-1,6.947197914E-1,5.104122162E-1
3.120319896E0,5.060935020E-1,5.546803474E-1,7.300615311E-1
3.130549896E0,4.802063107E-2,4.848303795E-1,9.701490402E-1
3.140262896E0,-3.457511067E-1,5.772500038E-1,1.327672005E0
3.150442896E0,-5.562926531E-1,6.714301109E-1,1.710416794E0
3.160483896E0,-7.076861858E-1,6.941814423E-1,2.122778893E0
3.170288896E0,-8.341894150E-1,7.344241142E-1,2.382546425E0
3.180335896E0,-9.185016155E-1,7.880387306E-1,2.563356400E0
3.190324896E0,-8.787187338E-1,8.092684746E-1,2.764373779E0
3.201127896E0,-7.379934788E-1,8.244223595E-1,3.122481346E0
3.210308896E0,-5.390304923E-1,8.048458099E-1,3.655615807E0
3.220321896E0,-4.257643819E-1,7.895936966E-1,3.983629227E0
3.230323896E0,-4.702461660E-1,8.169221878E-1,4.088451385E0
3.240335896E0,-6.071116924E-1,9.970774651E-1,4.124059677E0
3.250308896E0,-7.307526469E-1,1.206413746E0,4.062937737E0
3.260293896E0,-6.426690221E-1,1.324627876E0,3.996658325E0
3.270581896E0,-2.709586024E-1,1.312726498E0,3.975494385E0
3.280334896E0,3.753865063E-1,9.492354393E-1,3.925559998E0
3.290298896E0,9.970943332E-1,4.253144264E-1,3.890801430E0
3.300288896E0,1.307836056E0,-9.814262390E-2,3.832896233E0
3.310631896E0,1.238243580E0,-6.122269630E-1,3.626306534E0
3.320328896E0,7.334985137E-1,-1.156744003E0,3.248126984E0
3.330371896E0,4.979374260E-2,-1.544897318E0,2.497115135E0
3.340288896E0,-6.033822298E-1,-1.793163061E0,1.590022087E0
3.351073896E0,-1.144007444E0,-1.979337215E0,6.957359314E-1
3.360326896E0,-1.488038182E0,-2.177736044E0,-5.650138855E-2
3.371101896E0,-1.714812517E0,-2.263790131E0,-6.438193321E-1
3.380268896E0,-1.972845674E0,-2.163188934E0,-1.079024315E0
3.391313896E0,-2.123579502E0,-2.077117682E0,-1.291405678E0
3.400309896E0,-2.107117414E0,-2.035249949E0,-1.302945137E0
3.410405896E0,-1.976326227E0,-2.070525169E0,-1.309135437E0
3.420312896E0,-1.644325495E0,-2.229918718E0,-1.243346691E0
3.432035896E0,-8.500573635E-1,-2.554138184E0,-1.352986336E0
3.440601896E0,-9.294124246E-1,-2.581593037E0,-1.333808899E0
3.450317896E0,-6.984018087E-1,-2.653662682E0,-1.289517879E0
3.460323896E0,-5.235879421E-1,-2.600321054E0,-1.020267487E0
3.472199896E0,-4.458382726E-2,-2.585715294E0,-7.871437073E-2
3.480309896E0,-1.108404100E-1,-2.559984684E0,4.682846069E-1
3.490302896E0,8.789837360E-2,-2.449421167E0,7.633571625E-1
3.500332896E0,8.370161057E-3,-2.398520231E0,8.099355698E-1
3.510326896E0,-1.319476068E-1,-2.432492018E0,6.551752090E-1
3.520597896E0,-3.467733264E-1,-2.388059378E0,1.729946136E-1
3.530304896E0,-6.168720722E-1,-2.306748390E0,-3.075137138E-1
3.540303896E0,-8.403113484E-1,-2.189978600E0,-9.031982422E-1
3.550311896E0,-9.671884775E-1,-2.055211306E0,-1.416540146E0
3.560296896E0,-9.984062910E-1,-1.937219858E0,-1.852705956E0
3.570312896E0,-9.431428909E-1,-1.859672070E0,-2.212889194E0
3.580326896E0,-8.610131741E-1,-1.829522133E0,-2.441809654E0
3.590332896E0,-7.621877789E-1,-1.774066687E0,-2.495851994E0
3.600316896E0,-7.518147230E-1,-1.697126150E0,-2.404672146E0
3.610305896E0,-8.127738833E-1,-1.579556704E0,-2.297427177E0
3.621628896E0,-8.331609964E-1,-1.470250130E0,-2.072703838E0
3.630286896E0,-8.368418217E-1,-1.339500427E0,-1.694590092E0
3.640339896E0,-8.436068296E-1,-1.170115471E0,-1.222423077E0
3.650391896E0,-8.481609821E-1,-1.008891582E0,-8.028078079E-1
3.660308896E0,-8.194166422E-1,-8.465895653E-1,-4.736123085E-1
3.670728896E0,-7.914961576E-1,-6.925711632E-1,-3.069911003E-1
3.680293896E0,-7.598340511E-1,-5.396637917E-1,-1.602945328E-1
3.690391896E0,-6.361789107E-1,-3.906874657E-1,4.534244537E-2
3.700394896E0,-4.678294063E-1,-3.139443398E-1,2.163658142E-1
3.710619896E0,-3.605154157E-1,-2.706871033E-1,3.180332184E-1
3.721229896E0,-3.645150065E-1,-1.885461807E-1,4.076995850E-1
3.730420896E0,-4.369682074E-1,-1.268787384E-1,5.022039413E-1
3.740287896E0,-5.884972811E-1,-3.972530365E-3,5.998106003E-1
3.750819896E0,-7.267748117E-1,1.069011688E-1,7.909164429E-1
3.760340896E0,-8.110811710E-1,1.826596260E-1,1.187184334E0
3.770377896E0,-9.293103218E-1,2.379226685E-1,1.569959641E0
3.780308896E0,-1.077832222E0,3.296499252E-1,2.058941841E0
3.790277896E0,-1.227475524E0,4.873051643E-1,2.681464195E0
3.800318896E0,-1.348021507E0,6.833982468E-1,3.200004578E0
3.810289896E0,-1.441383123E0,8.417110443E-1,3.699707031E0
3.821085896E0,-1.280350685E0,8.212752342E-1,4.109433174E0
3.830274896E0,-8.075054884E-1,5.375628471E-1,4.257975578E0
3.840352896E0,-1.939768046E-1,2.414498329E-1,4.343668938E0
3.850615896E0,3.512535393E-1,1.700973511E-1,4.401404381E0
3.860327896E0,9.587610364E-1,1.171875000E-2,4.607610703E0
3.870985896E0,1.495161414E0,-3.103723526E-1,4.758338928E0
3.880386896E0,1.688101768E0,-6.570911407E-1,4.886563301E0
3.891147896E0,1.582492471E0,-1.016319752E0,4.620505333E0
3.900289896E0,1.248814344E0,-1.381201982E0,3.981690407E0
3.910324896E0,6.971790791E-1,-1.545128345E0,3.232705116E0
3.920315896E0,1.265993714E-1,-1.525637627E0,2.529689789E0
3.930378896E0,-2.447112203E-1,-1.512651682E0,2.024765015E0
3.940315896E0,-4.018390179E-1,-1.492102623E0,1.574538231E0
3.953094896E0,-4.172109962E-1,-1.382314205E0,1.170703888E0
3.970307896E0,-1.863525510E-1,-1.422919512E0,1.616916656E-1
3.981130896E0,1.098458469E-1,-1.666574001E0,-1.284426212E0
3.990299896E0,1.157003343E-1,-1.736053467E0,-1.242284298E0
4.000332896E0,1.633032858E-1,-1.752004623E0,-1.836332321E0
4.010290896E0,2.456908226E-1,-1.791988134E0,-2.127683640E0
4.020325896E0,3.596109748E-1,-1.865767956E0,-1.888823509E0
4.030413896E0,4.763956666E-1,-1.973221540E0,-1.495989323E0
4.040331896E0,4.430755079E-1,-1.988236904E0,-9.995226860E-1
4.050560896E0,3.660067916E-1,-2.008273602E0,-6.527023315E-1
4.060333896E0,2.647531033E-1,-2.004757643E0,-3.957767487E-1
4.070335896E0,1.479949355E-1,-1.957619905E0,-3.490562439E-1
4.080295896E0,3.534594178E-2,-1.908474684E0,-5.394234657E-1
4.090360896E0,-6.545010209E-2,-1.907559633E0,-9.340314865E-1
4.100373896E0,-2.300585955E-1,-1.816771507E0,-1.380728722E0
4.110319896E0,-4.432392716E-1,-1.618813992E0,-1.855237007E0
4.120359896E0,-6.158283949E-1,-1.452774048E0,-2.278718472E0
4.130337896E0,-7.157293558E-1,-1.291685581E0,-2.552650452E0
4.140321896E0,-7.511750460E-1,-1.172302246E0,-2.650031090E0
4.150282896E0,-7.195097804E-1,-1.089183807E0,-2.643620014E0
4.160311896E0,-6.722668409E-1,-9.928607941E-1,-2.593500137E0
4.170300896E0,-5.718105435E-1,-8.647603989E-1,-2.468116760E0
4.180298896E0,-4.733351171E-1,-7.503228188E-1,-2.263973713E0
4.190314896E0,-3.680911064E-1,-6.215028763E-1,-2.052086830E0
4.200385896E0,-2.684593201E-1,-5.133571625E-1,-1.799185276E0
4.210349896E0,-1.086420566E-1,-3.948211670E-1,-1.581874847E0
4.221842896E0,6.034647673E-2,-3.244996071E-1,-1.435274124E0
4.230302896E0,1.648756564E-1,-2.483096123E-1,-1.242617607E0
4.240309896E0,1.465692669E-1,-1.287322044E-1,-1.019310951E0
4.250300896E0,7.800579071E-2,-7.719039917E-2,-8.450703621E-1
4.260375896E0,-2.591529116E-2,-5.217504501E-2,-6.637606621E-1
4.270451896E0,-2.388518602E-1,1.991510391E-2,-4.508562088E-1
4.280291896E0,-3.610216677E-1,7.554912567E-2,-5.810832977E-2
4.291438896E0,-5.240803957E-1,1.266994476E-1,4.895486832E-1
4.300314896E0,-7.034869194E-1,2.715597153E-1,1.317516327E0
4.310320896E0,-7.662329078E-1,4.011268616E-1,2.197310448E0
4.320302896E0,-7.832627296E-1,4.860835075E-1,2.955868721E0
4.330621896E0,-7.545811534E-1,5.785694122E-1,3.579431534E0
4.340322896E0,-6.863514185E-1,6.192975044E-1,3.900092125E0
4.350325896E0,-5.635204315E-1,6.462721825E-1,3.988524437E0
4.360355896E0,-4.575475156E-1,7.265558243E-1,3.980432510E0
4.370341896E0,-3.706786036E-1,8.190636635E-1,3.918415070E0
4.380891896E0,-3.233214021E-1,9.045200348E-1,3.886797905E0
4.390285896E0,-2.784586549E-1,9.948196411E-1,3.891325951E0
4.403010896E0,-1.134376973E-1,1.002630711E0,3.812444687E0
4.420452896E0,4.751345813E-1,6.015348434E-1,3.625997543E0
4.430300896E0,8.710082769E-1,9.560203552E-2,3.558548927E0
4.440313896E0,1.024204969E0,-4.711952209E-1,3.499203682E0
4.450507896E0,7.875732183E-1,-8.952586651E-1,3.392606735E0
4.460342896E0,3.370389044E-1,-1.246247530E0,3.207363129E0
4.470321896E0,-1.739710271E-1,-1.540975571E0,2.671935081E0
4.480318896E0,-7.641849518E-1,-1.669643641E0,2.028980255E0
4.490294896E0,-1.236100197E0,-1.774261713E0,1.516060829E0
4.500314896E0,-1.510484934E0,-1.959715128E0,1.060765266E0
4.510351896E0,-1.702887893E0,-2.088641405E0,5.490589142E-1
4.520310896E0,-1.889437437E0,-2.051043034E0,-1.779460907E-2
4.530359896E0,-2.013967514E0,-1.979818106E0,-5.926418304E-1
4.540346896E0,-1.993795395E0,-2.006970882E0,-1.095371246E0
4.550314896E0,-1.797736287E0,-2.097812653E0,-1.524663925E0
4.560352896E0,-9.748938084E-1,-2.216018200E0,-2.004237652E0
4.571480896E0,-5.605969429E-1,-2.184894323E0,-1.986892223E0
4.580355896E0,-1.060514152E-1,-2.152849674E0,-1.728013515E0
4.590704896E0,3.596459329E-1,-2.128571987E0,-1.451122284E0
4.600311896E0,7.182635069E-1,-2.114304304E0,-1.131654739E0
4.610343896E0,8.734797835E-1,-2.106187344E0,-7.700185776E-1
4.620304896E0,8.522777557E-1,-2.072163343E0,-4.781117439E-1
4.630372896E0,6.132508516E-1,-2.085222721E0,-3.307294846E-1
4.640327896E0,1.833474636E-1,-2.107180357E0,-2.909603119E-1
4.653823896E0,-3.289126158E-1,-2.053017616E0,-4.427947998E-1
4.671160896E0,-9.918169975E-1,-1.912758827E0,-9.465007782E-1
4.680303896E0,-1.077702522E0,-1.878443956E0,-1.149982929E0
4.690317896E0,-1.096076488E0,-1.777788162E0,-1.321160316E0
4.700288896E0,-1.029610872E0,-1.653406143E0,-1.483783722E0
4.710399896E0,-9.437662959E-1,-1.586849451E0,-1.609456539E0
4.720318896E0,-8.693647981E-1,-1.502287865E0,-1.769688606E0
4.730274896E0,-8.669011593E-1,-1.394237757E0,-1.787351131E0
4.740629896E0,-8.616803288E-1,-1.255203009E0,-1.811999321E0
4.750344896E0,-7.304775715E-1,-1.159982920E0,-1.793911457E0
4.760642896E0,-5.318028331E-1,-1.069404840E0,-1.655931950E0
4.770345896E0,-3.756725788E-1,-9.324078560E-1,-1.433999062E0
4.780282896E0,-2.919297218E-1,-7.766232491E-1,-1.119621277E0
4.790450896E0,-2.544509470E-1,-6.108813286E-1,-7.614965439E-1
4.800385896E0,-2.163867652E-1,-5.217900276E-1,-3.823423386E-1
4.811999896E0,-1.587772965E-1,-4.905080795E-1,-5.039596558E-2
4.820311896E0,-1.622107625E-1,-4.427185059E-1,2.491188049E-1
4.830405896E0,-2.935268283E-1,-3.501968384E-1,6.111078262E-1
4.840329896E0,-4.200293124E-1,-2.739615440E-1,1.158810616E0
4.850601896E0,-4.908389747E-1,-2.376976013E-1,1.642321587E0
4.860313896E0,-5.451178551E-1,-2.057371140E-1,2.065938950E0
4.870322896E0,-6.407227516E-1,-1.852054596E-1,2.459187508E0
4.880344896E0,-7.092992067E-1,-1.818156242E-1,2.753191948E0
4.890309896E0,-8.110837936E-1,-1.729559898E-1,3.074575424E0
4.900296896E0,-8.397773504E-1,-1.001749039E-1,3.396553993E0
4.910331896E0,-8.181876540E-1,-1.976013184E-2,3.676403999E0
4.921242896E0,-7.805703282E-1,1.010375023E-1,3.773252487E0
4.930278896E0,-8.213162422E-1,2.664780617E-1,3.718493462E0
4.940332896E0,-9.537700415E-1,4.811306000E-1,3.524726868E0
4.950301896E0,-1.035296321E0,6.329655647E-1,3.278409958E0
4.960339896E0,-9.847938418E-1,6.395478249E-1,2.928524971E0
4.970405896E0,-6.969879866E-1,4.047150612E-1,2.573986053E0
4.980287896E0,-1.888706088E-1,4.981231689E-2,2.210620880E0
4.990660896E0,4.078581035E-1,-2.783470154E-1,1.899495125E0
5.000294896E0,8.927268982E-1,-5.156059265E-1,1.749990463E0
5.010678896E0,1.128881931E0,-7.935626507E-1,1.705683708E0
5.020327896E0,1.127401352E0,-1.121502161E0,1.911951065E0
5.030312896E0,8.453843594E-1,-1.402003288E0,2.117947578E0
5.040306896E0,4.602003396E-1,-1.662190914E0,2.146933556E0
5.050278896E0,1.986947656E-2,-1.819903851E0,2.112886429E0
5.060298896E0,-4.714263976E-1,-1.825468540E0,1.866908073E0
5.070341896E0,-9.099938869E-1,-1.718812704E0,1.643825531E0
5.083662896E0,-1.129889250E0,-1.561171055E0,1.000416756E0
5.100308896E0,-6.180795431E-1,-1.476123333E0,-1.318655014E-1
5.110302896E0,-1.971374303E-1,-1.431674004E0,-6.239490509E-1
5.120332896E0,2.672626674E-1,-1.424067020E0,-9.652128220E-1
5.130386896E0,7.094010115E-1,-1.562453747E0,-1.006118298E0
5.140306896E0,1.005850077E0,-1.632853031E0,-9.050617218E-1
5.153539896E0,1.204303503E0,-1.621314049E0,-7.321996689E-1
5.170296896E0,1.155384779E0,-1.780349255E0,-5.095748901E-1
5.180296896E0,9.248467684E-1,-1.869114399E0,-6.822719574E-1
5.190341896E0,5.145686865E-1,-1.783880234E0,-1.009670734E0
5.200336896E0,9.777710587E-2,-1.656426430E0,-1.283159733E0
5.210295896E0,-1.519979537E-1,-1.561898232E0,-1.498280525E0
5.221307896E0,-2.761908472E-1,-1.503052473E0,-1.711622715E0
5.230289896E0,-3.118692636E-1,-1.470873356E0,-2.008707047E0
5.240353896E0,-2.932354212E-1,-1.461530685E0,-2.358108997E0
5.250436896E0,-2.808699608E-1,-1.455454111E0,-2.733860016E0
5.260304896E0,-2.615251839E-1,-1.374113560E0,-3.099231720E0
5.270880896E0,-1.909283847E-1,-1.226321459E0,-3.334335804E0
5.280348896E0,-9.981052577E-2,-1.036681652E0,-3.439651489E0
5.290821896E0,1.049658656E-2,-8.026847839E-1,-3.249651432E0
5.300389896E0,2.451100498E-1,-5.578489304E-1,-2.876518250E0
5.311238896E0,5.599997640E-1,-4.705038071E-1,-2.389498234E0
5.320285896E0,8.559430838E-1,-4.255280495E-1,-1.918163776E0
5.330342896E0,9.954721928E-1,-2.773237228E-1,-1.489680767E0
5.340297896E0,1.066224098E0,-1.289520264E-1,-1.051228523E0
5.350336896E0,1.121290326E0,-5.771636963E-2,-5.976104736E-1
5.360324896E0,1.124973178E0,-5.296802521E-2,-5.147457123E-2
5.370327896E0,9.340413809E-1,1.304531097E-2,4.043283463E-1
5.380278896E0,6.312382221E-1,1.383838654E-1,7.637329102E-1
5.390359896E0,2.517489195E-1,2.405319214E-1,1.108281136E0
5.400327896E0,-1.677506417E-1,3.712506294E-1,1.342671394E0
5.410329896E0,-4.981113672E-1,5.003967285E-1,1.528590202E0
5.420308896E0,-7.911312580E-1,6.103682518E-1,1.742925644E0
5.430272896E0,-9.843206406E-1,7.175655365E-1,1.934172630E0
5.440751896E0,-1.000550747E0,7.795839310E-1,2.172841072E0
5.450591896E0,-9.503336549E-1,8.184037209E-1,2.397686005E0
5.460362896E0,-7.588287592E-1,7.683653831E-1,2.578133583E0
5.470324896E0,-4.793577194E-1,6.670718193E-1,2.676958084E0
5.480292896E0,-2.675213516E-1,6.497497559E-1,2.669150352E0
5.490287896E0,-1.879664958E-1,7.092247009E-1,2.697897911E0
5.500283896E0,-2.207247168E-1,8.089771271E-1,2.858654022E0
5.510290896E0,-2.484812438E-1,9.055037498E-1,3.159453392E0
5.525792896E0,-2.134562731E-1,8.204026222E-1,3.976270676E0
5.540330896E0,-5.561703444E-2,5.204558372E-1,4.270088196E0
5.550295896E0,3.067048192E-1,-6.140089035E-2,4.296114922E0
5.560321896E0,6.496847868E-1,-6.325421333E-1,4.136707306E0
5.570301896E0,6.815526485E-1,-9.273104668E-1,3.886956215E0
5.580280896E0,4.732187092E-1,-1.133868933E0,3.695314407E0
5.590416896E0,6.658636034E-2,-1.408527374E0,3.393550873E0
5.601378896E0,-1.012973785E0,-1.731589794E0,2.171314240E0
5.610408896E0,-9.854519963E-1,-1.764147282E0,2.186421394E0
5.620286896E0,-1.503685832E0,-1.828425169E0,1.405985832E0
5.630253896E0,-1.901048541E0,-1.876520872E0,6.515884399E-1
5.640300896E0,-2.176028967E0,-1.861364126E0,-6.010007858E-1
5.650374896E0,-1.999650598E0,-1.771374464E0,-1.021988869E0
5.661176896E0,-1.587540984E0,-1.900055647E0,-1.297094345E0
5.670393896E0,-1.056234360E0,-2.057799816E0,-1.327103615E0
5.680339896E0,-5.903869867E-1,-2.167032719E0,-1.176923752E0
5.690900896E0,-6.644731760E-1,-2.307228565E0,-9.288210869E-1
5.700302896E0,8.927629888E-2,-2.452321768E0,-5.475273132E-1
5.710752896E0,9.076195955E-2,-2.539813042E0,-2.868232727E-1
5.720342896E0,-2.562382817E-2,-2.601285696E0,-1.850633621E-1
5.730378896E0,-2.089039534E-1,-2.642033100E0,-1.895484924E-1
5.740314896E0,-3.990268111E-1,-2.581230164E0,-3.226623535E-1
5.750914896E0,-6.206941605E-1,-2.431217194E0,-4.594192505E-1
5.760576896E0,-8.570486903E-1,-2.222256660E0,-6.298389435E-1
5.770297896E0,-9.132827520E-1,-2.108841658E0,-7.899684906E-1
5.780270896E0,-8.224681616E-1,-2.120423079E0,-1.087174416E0
5.790279896E0,-7.446053028E-1,-2.130697489E0,-1.547392845E0
5.800318896E0,-6.558642983E-1,-2.060158253E0,-2.049216270E0
5.810724896E0,-5.954384208E-1,-1.957688808E0,-2.464538097E0
5.820334896E0,-5.265516043E-1,-1.877986193E0,-2.753398418E0
5.830289896E0,-4.229134023E-1,-1.768535614E0,-2.969686508E0
5.840383896E0,-3.616362810E-1,-1.618278980E0,-3.101562023E0
5.850311896E0,-2.491760552E-1,-1.474348783E0,-3.004595757E0
5.860756896E0,-1.825836003E-1,-1.395565271E0,-2.861920357E0
5.870384896E0,-2.505052090E-1,-1.347585678E0,-2.647645950E0
5.880412896E0,-3.887743354E-1,-1.249019623E0,-2.383942604E0
5.890345896E0,-5.380239487E-1,-1.172779560E0,-2.233714581E0
5.900291896E0,-5.724025965E-1,-1.123471498E0,-2.056977749E0
5.910293896E0,-5.154948235E-1,-1.050468922E0,-1.713766575E0
5.920331896E0,-4.782051444E-1,-8.727450371E-1,-1.254632473E0
5.930343896E0,-4.289579093E-1,-7.030658722E-1,-6.522388458E-1
5.940320896E0,-3.243470788E-1,-5.921111107E-1,-3.153705597E-2
5.950283896E0,-3.056386113E-1,-4.438056946E-1,5.928096771E-1
5.960446896E0,-2.388530672E-1,-3.133325577E-1,1.298357964E0
5.970308896E0,-1.129914820E-1,-3.014149666E-1,1.829463959E0
5.980273896E0,-1.112441123E-1,-2.399244308E-1,2.321015358E0
5.990448896E0,-1.709223092E-1,-1.145496368E-1,2.789024353E0
6.000273896E0,-1.743060499E-1,1.563329697E-1,2.974952698E0
6.011251896E0,-2.773607969E-1,3.184227943E-1,3.018271446E0
6.020270896E0,-3.801368773E-1,5.136156082E-1,2.964030266E0
6.031044896E0,-5.815464854E-1,7.681012154E-1,2.871032715E0
6.040332896E0,-7.821539640E-1,1.043363094E0,2.710794449E0
6.050445896E0,-8.875977397E-1,1.246793270E0,2.693213463E0
6.060327896E0,-6.709716320E-1,1.256143093E0,2.776054382E0
6.070613896E0,-9.521174431E-2,1.001600266E0,2.925540924E0
6.080374896E0,6.019525528E-1,7.003211975E-1,3.025473595E0
6.090371896E0,1.153008819E0,5.487074852E-1,3.278526306E0
6.100774896E0,1.403960705E0,5.042414665E-1,3.604301453E0
6.110315896E0,1.518058062E0,3.632946014E-1,4.068631172E0
6.120357896E0,1.392560124E0,-4.549026489E-3,4.433113098E0
6.130352896E0,9.962677360E-1,-4.386925697E-1,4.384842873E0
6.140334896E0,3.351550698E-1,-7.977871895E-1,4.059238434E0
6.150464896E0,-4.791135192E-1,-1.008891582E0,3.705466270E0
6.160264896E0,-1.186122894E0,-1.027461529E0,3.273958206E0
6.170296896E0,-1.496749640E0,-1.006423950E0,2.751695633E0
6.180284896E0,-1.425099134E0,-7.982015610E-1,1.541361809E0
6.190295896E0,-1.002046347E0,-7.684524059E-1,7.956953049E-1
6.200292896E0,-3.888405859E-1,-9.122700691E-1,-2.926063538E-2
6.210412896E0,2.214249969E-1,-1.090858221E0,-8.695654869E-1
6.221763896E0,6.945230961E-1,-1.265226364E0,-1.466835499E0
6.230324896E0,9.712662697E-1,-1.319990396E0,-1.809752941E0
6.240239896E0,1.103498101E0,-1.382405996E0,-2.007763863E0
6.250367896E0,1.193697929E0,-1.474989653E0,-1.935722828E0
6.260331896E0,1.201396942E0,-1.606915236E0,-1.784866810E0
6.270285896E0,1.090519667E0,-1.744276524E0,-1.687881470E0
6.280237896E0,8.750584722E-1,-1.869049788E0,-1.624505997E0
6.290331896E0,6.724677086E-1,-1.899353027E0,-1.392503262E0
6.300317896E0,4.882375598E-1,-1.909018278E0,-1.338372707E0
6.310287896E0,2.808391750E-1,-1.868524075E0,-1.320997715E0
6.320605896E0,1.112126634E-1,-1.802199841E0,-1.267594337E0
6.330341896E0,3.937627375E-2,-1.747056246E0,-1.290105343E0
6.340287896E0,1.336511970E-2,-1.694609642E0,-1.448511600E0
6.350400896E0,8.881688118E-4,-1.611218691E0,-1.736461163E0
6.360300896E0,-1.882269979E-2,-1.472397804E0,-2.079405785E0
6.370316896E0,-5.606323481E-3,-1.321870804E0,-2.399244308E0
6.380320896E0,8.233281970E-2,-1.207945824E0,-2.725204468E0
6.390330896E0,2.190654129E-1,-1.100659847E0,-2.948410034E0
6.400705896E0,3.398533762E-1,-8.961858749E-1,-3.006053448E0
6.410440896E0,4.952588081E-1,-6.258616447E-1,-2.878098011E0
6.420285896E0,7.877377272E-1,-4.069533348E-1,-2.594775677E0
6.430252896E0,1.103010297E0,-2.637710571E-1,-2.124755383E0
6.440285896E0,1.389503598E0,-1.305303574E-1,-1.598818302E0
6.450367896E0,1.645753741E0,-2.714157104E-2,-1.073795319E0
6.460331896E0,1.786121845E0,-1.969337463E-3,-6.670680046E-1
6.470351896E0,1.792741299E0,1.338911057E-2,-3.990430832E-1
6.480338896E0,1.628422856E0,2.713584900E-2,-1.378383636E-1
6.490366896E0,1.313855290E0,8.333349228E-2,1.992921829E-1
6.500276896E0,9.300800562E-1,1.618566513E-1,5.986442566E-1
6.510310896E0,4.709887505E-1,2.504429817E-1,1.004810333E0
6.520273896E0,-3.065705299E-3,4.028062820E-1,1.405907631E0
6.530290896E0,-4.021126032E-1,6.287751198E-1,1.805429459E0
6.540367896E0,-6.670544147E-1,7.977776527E-1,2.236708641E0
6.550272896E0,-7.218601704E-1,8.946132660E-1,2.639545441E0
6.560344896E0,-6.520684361E-1,8.957591057E-1,2.967083931E0
6.576242896E0,-2.956030965E-1,7.898550034E-1,3.211897850E0
6.590398896E0,-1.782925129E-1,7.547769547E-1,3.004632950E0
6.600236896E0,-1.694284081E-1,7.945137024E-1,2.837342262E0
6.610323896E0,-1.958876252E-1,8.301463127E-1,2.619938850E0
6.620431896E0,-1.876087785E-1,8.293805122E-1,2.441853523E0
6.630268896E0,-1.688810587E-1,7.719774246E-1,2.419201851E0
6.640238896E0,-7.845348120E-2,6.598081589E-1,2.525380135E0
6.650271896E0,1.382420957E-1,3.948659897E-1,2.760611534E0
6.660808896E0,3.966944516E-1,-1.289391518E-1,2.897533417E0
6.670502896E0,4.359531701E-1,-5.502641201E-1,3.138360977E0
6.680367896E0,2.575481534E-1,-8.164474964E-1,3.223169327E0
6.690459896E0,-4.913702607E-2,-1.072748899E0,3.171367645E0
6.700335896E0,-4.275478125E-1,-1.381383419E0,2.665425301E0
6.710306896E0,-8.601757288E-1,-1.592695236E0,1.883996964E0
6.720290896E0,-1.542584181E0,-1.645942450E0,5.450839996E-1
6.730417896E0,-1.640462279E0,-1.666672230E0,1.081600189E-1
6.740332896E0,-1.661161304E0,-1.682592869E0,-2.499237061E-1
6.750482896E0,-1.629161358E0,-1.690201283E0,-6.753530502E-1
6.760313896E0,-1.445153117E0,-1.812546253E0,-1.082671165E0
6.770451896E0,-1.155899048E0,-1.959614038E0,-1.402556896E0
6.780323896E0,-8.983770609E-1,-2.059874296E0,-1.611413002E0
6.790316896E0,-6.780580282E-1,-2.060640574E0,-1.618765831E0
6.800351896E0,-4.744969904E-1,-2.017794609E0,-1.497809887E0
6.810385896E0,-2.726897299E-1,-2.004226923E0,-1.313318729E0
6.820342896E0,-1.061980948E-1,-1.991678715E0,-1.159597874E0
6.830416896E0,-5.021095276E-4,-1.986379623E0,-1.057859421E0
6.840437896E0,7.412563264E-2,-2.005905390E0,-1.061486244E0
6.850320896E0,3.563793749E-2,-1.899465799E0,-1.152434826E0
6.860487896E0,-9.629856050E-2,-1.688337803E0,-1.258367062E0
6.870312896E0,-2.856106162E-1,-1.525129795E0,-1.252782345E0
6.880381896E0,-4.361793995E-1,-1.401909828E0,-1.234802723E0
6.890270896E0,-5.443568230E-1,-1.335328341E0,-1.333153248E0
6.900356896E0,-6.625979543E-1,-1.267075062E0,-1.514733791E0
6.910527896E0,-7.726905346E-1,-1.130183458E0,-1.634322166E0
6.920364896E0,-7.768146992E-1,-9.793040752E-1,-1.602953434E0
6.930360896E0,-6.733391285E-1,-8.899786472E-1,-1.555809021E0
6.944737896E0,-5.639107823E-1,-8.680348396E-1,-1.551571846E0
6.960321896E0,-5.697728395E-1,-6.490097046E-1,-1.757935047E0
6.970308896E0,-6.118994951E-1,-5.711638927E-1,-1.874894142E0
6.980403896E0,-6.518101692E-1,-4.875266552E-1,-1.933252811E0
6.992955896E0,-6.398798227E-1,-4.016957283E-1,-1.915824413E0
7.010871896E0,-2.919051647E-1,-3.815755844E-1,-1.692954063E0
7.020368896E0,-6.469939649E-2,-2.800941467E-1,-1.387283802E0
7.030344896E0,1.319494247E-1,-1.797146797E-1,-1.069097042E0
7.040328896E0,2.193075418E-1,-1.298546791E-1,-7.176928520E-1
7.050290896E0,1.411488056E-1,-3.025579453E-2,-3.526678085E-1
7.060288896E0,-2.857796848E-2,8.588933945E-2,1.132259369E-1
7.070598896E0,-2.330511808E-1,1.439104080E-1,7.082309723E-1
7.080343896E0,-4.750451744E-1,2.415018082E-1,1.289463997E0
7.090359896E0,-5.914455652E-1,3.234763145E-1,1.907866478E0
7.100301896E0,-5.676378608E-1,3.268160820E-1,2.577603340E0
7.110381896E0,-5.218459964E-1,3.498649597E-1,3.032253265E0
7.120305896E0,-5.062894821E-1,4.078164101E-1,3.337847710E0
7.130299896E0,-5.454243422E-1,5.284719467E-1,3.420613289E0
7.140275896E0,-7.076756954E-1,7.421965599E-1,3.315647125E0
7.150603896E0,-8.688284159E-1,9.522843361E-1,3.218555450E0
7.161408896E0,-8.888087869E-1,1.038962364E0,3.182103157E0
7.170411896E0,-6.685422063E-1,1.016218185E0,3.207242012E0
7.180320896E0,-4.208042622E-1,9.888610840E-1,3.342769623E0
7.190461896E0,-1.933897883E-1,9.575262070E-1,3.531059265E0
7.200340896E0,1.000198871E-1,6.626944542E-1,3.941614151E0
7.210300896E0,4.919863343E-1,1.579523087E-1,4.171298981E0
7.220305896E0,7.007530332E-1,-3.522489071E-1,4.284840584E0
7.230282896E0,8.093647361E-1,-7.929570675E-1,4.251111031E0
7.240805896E0,8.063254356E-1,-1.127990484E0,4.005632401E0
7.250355896E0,6.426461339E-1,-1.356075764E0,2.686738014E0
7.260318896E0,7.615794241E-2,-1.600975275E0,1.823229790E0
7.270289896E0,-1.555221379E-1,-1.628504753E0,9.934854507E-1
7.280326896E0,-2.594785988E-1,-1.610075712E0,2.411670685E-1
7.290316896E0,-3.899576664E-1,-1.521840811E0,-4.617109299E-1
7.300333896E0,-4.714079499E-1,-1.400130987E0,-1.147400856E0
7.310401896E0,-4.379957914E-1,-1.271920443E0,-1.772143841E0
7.320318896E0,-2.936093509E-1,-1.160328865E0,-2.251849174E0
7.330278896E0,3.185869008E-2,-1.126161575E0,-2.409653664E0
7.340437896E0,5.137043595E-1,-1.199154615E0,-2.249028683E0
7.350331896E0,9.816958904E-1,-1.270702362E0,-1.996335030E0
7.360318896E0,1.305145860E0,-1.307619572E0,-1.673672676E0
7.370354896E0,1.556069613E0,-1.364430189E0,-1.355563641E0
7.380323896E0,1.714034081E0,-1.505913734E0,-9.749684334E-1
7.390421896E0,1.722701073E0,-1.620574951E0,-6.110939980E-1
7.400308896E0,1.507104158E0,-1.656890631E0,-4.276132584E-1
7.411000896E0,1.093824387E0,-1.653182745E0,-4.491081238E-1
7.420313896E0,5.226354599E-1,-1.596909046E0,-6.394286156E-1
7.430762896E0,1.597430557E-2,-1.470994234E0,-9.414067268E-1
7.440476896E0,-3.613325357E-1,-1.340549707E0,-1.284183025E0
7.450355896E0,-6.209164858E-1,-1.215948343E0,-1.637973785E0
7.460339896E0,-7.048157454E-1,-1.098745584E0,-1.897942066E0
7.470311896E0,-6.900795698E-1,-9.727768898E-1,-2.033835411E0
7.480424896E0,-5.968016386E-1,-8.227229118E-1,-2.113608360E0
7.490290896E0,-4.190011621E-1,-7.013297081E-1,-2.201575756E0
7.500279896E0,-2.103432119E-1,-6.205995083E-1,-2.209804058E0
7.510305896E0,2.125173807E-3,-5.285029411E-1,-2.151634693E0
7.520297896E0,1.354919672E-1,-4.051427841E-1,-2.050624847E0
7.530329896E0,3.524564505E-1,-2.750258446E-1,-1.883034706E0
7.540560896E0,5.320928693E-1,-1.470303535E-1,-1.739550114E0
7.550240896E0,7.675088644E-1,-5.531549454E-2,-1.534215450E0
7.560310896E0,9.550789595E-1,2.725648880E-2,-1.287804604E0
7.570390896E0,1.080039740E0,1.149492264E-1,-1.016501904E0
7.580395896E0,1.211212039E0,1.566052437E-1,-7.539935112E-1
7.590359896E0,1.229927778E0,1.643638611E-1,-3.878087997E-1
7.600268896E0,1.009336114E0,2.511010170E-1,-6.008148193E-5
7.610413896E0,7.265609503E-1,3.549933434E-1,4.785308838E-1
7.620425896E0,3.652802706E-1,3.832974434E-1,9.938440323E-1
7.630295896E0,-8.275286853E-2,4.009356499E-1,1.525459290E0
7.641532896E0,-7.030377388E-1,3.604440689E-1,1.911710739E0
7.650248896E0,-1.108283877E0,3.621487617E-1,2.255567551E0
7.660414896E0,-1.286903024E0,4.371976852E-1,2.506035805E0
7.670314896E0,-1.392922401E0,5.448465347E-1,2.661438942E0
7.680456896E0,-1.492574453E0,7.421441078E-1,2.692572594E0
7.690291896E0,-1.468750954E0,9.577560425E-1,2.557858467E0
7.700450896E0,-1.390830755E0,1.170131207E0,2.467925072E0
7.710446896E0,-1.135769486E0,1.268451214E0,2.395491600E0
7.720472896E0,-7.015184760E-1,1.252338409E0,2.436367035E0
7.730516896E0,-1.890618503E-1,1.208739758E0,2.530687332E0
7.740300896E0,2.577807307E-1,1.250786781E0,2.730774879E0
7.750353896E0,6.168135405E-1,1.192099094E0,3.007479668E0
7.760390896E0,8.896647096E-1,8.543386459E-1,3.184730530E0
7.770371896E0,9.761713743E-1,3.450412750E-1,3.110725403E0
7.780417896E0,7.456092834E-1,-1.630287170E-1,2.782525063E0
7.790269896E0,2.725886405E-1,-5.266294479E-1,2.314167976E0
7.800353896E0,-1.020886779E0,-9.832096100E-1,1.617004395E0
7.810456896E0,-1.571544170E0,-1.131230831E0,1.397791862E0
7.820319896E0,-1.937117100E0,-1.247475147E0,1.167962074E0
7.830301896E0,-2.161868572E0,-1.314449072E0,1.007018089E0
7.840489896E0,-2.213172913E0,-1.427223682E0,8.088607788E-1
7.850303896E0,-2.124158859E0,-1.578493118E0,5.034503937E-1
7.860290896E0,-1.964852810E0,-1.685423136E0,1.307621002E-1
7.870314896E0,-1.738575220E0,-1.766645193E0,-1.785869598E-1
7.880336896E0,-1.452724338E0,-1.888924837E0,-4.416475296E-1
7.890311896E0,-1.138548374E0,-2.034511805E0,-5.610055923E-1
7.900357896E0,-9.045020342E-1,-2.084143162E0,-5.980281830E-1
7.910418896E0,-7.530367374E-1,-2.071104288E0,-6.036787033E-1
7.920332896E0,-6.189140081E-1,-2.100465536E0,-5.027847290E-1
7.930431896E0,-3.464052081E-1,-1.791522264E0,-5.199394226E-1
7.940287896E0,-4.082993269E-1,-1.708400488E0,-5.864877701E-1
7.950255896E0,-4.974864721E-1,-1.649954796E0,-7.485113144E-1
7.960372896E0,-6.369832754E-1,-1.574681759E0,-1.008872032E0
7.970292896E0,-7.797181606E-1,-1.477710247E0,-1.425072193E0
7.980339896E0,-8.694040775E-1,-1.414684534E0,-1.770606518E0
7.990366896E0,-9.084091783E-1,-1.354001999E0,-2.111810207E0
8.000448896E0,-9.445536733E-1,-1.314127922E0,-2.531713486E0
8.010342896E0,-9.749708772E-1,-1.244297028E0,-2.829331875E0
8.020314896E0,-9.951789975E-1,-1.098927498E0,-3.031675816E0
8.030287896E0,-9.584236145E-1,-9.486193657E-1,-3.157981873E0
8.040353896E0,-8.954112530E-1,-8.041942120E-1,-3.104176521E0
8.050542896E0,-8.511423469E-1,-5.932054520E-1,-2.959293842E0
8.060435896E0,-8.735522032E-1,-3.882956505E-1,-2.668517113E0
8.070302896E0,-8.170385957E-1,-2.691836357E-1,-2.163241386E0
8.080435896E0,-7.367511988E-1,-1.789107323E-1,-1.616133213E0
8.090353896E0,-6.699665189E-1,-7.638406754E-2,-1.133800030E0
8.100305896E0,-6.109333038E-1,8.821964264E-3,-7.097606659E-1
8.110311896E0,-5.611289740E-1,5.883646011E-2,-3.829450607E-1
8.120309896E0,-5.701550841E-1,7.954740524E-2,-2.598886490E-1
8.130276896E0,-5.734151006E-1,1.388773918E-1,-2.045898438E-1
8.140312896E0,-6.123594046E-1,1.963300705E-1,-7.110786438E-2
8.150247896E0,-6.305030584E-1,2.626647949E-1,9.206104279E-2
8.160401896E0,-6.217167377E-1,3.555169106E-1,3.529214859E-1
8.170341896E0,-5.259848237E-1,3.731007576E-1,8.420572281E-1
8.180288896E0,-3.844672441E-1,3.747386932E-1,1.286685944E0
8.190291896E0,-3.758480549E-1,3.826436996E-1,1.711961746E0
8.200359896E0,-3.486827612E-1,3.550353050E-1,2.056613922E0
8.210859896E0,-3.582916856E-1,2.689075470E-1,2.225774765E0
8.221027896E0,-4.466536045E-1,2.062282562E-1,2.326813698E0
8.230315896E0,-5.273821354E-1,2.591099739E-1,2.347476959E0
8.240282896E0,-5.939336419E-1,4.885840416E-1,2.241286278E0
8.250285896E0,-5.368539095E-1,7.416372299E-1,2.043507576E0
8.260305896E0,-2.087217569E-1,7.794499397E-1,1.948116302E0
8.270559896E0,3.090813458E-1,8.054137230E-1,1.969055176E0
8.280384896E0,8.428786397E-1,9.407768250E-1,2.144440651E0
8.290331896E0,1.351718664E0,1.065460205E0,2.448167801E0
8.300333896E0,1.825725198E0,9.575219154E-1,2.848567963E0
8.310419896E0,2.176335096E0,6.380357742E-1,3.194437981E0
8.320436896E0,2.341153860E0,2.174401283E-1,3.305167198E0
8.330300896E0,2.349538088E0,-2.831263542E-1,3.175774574E0
8.340300896E0,1.841094613E0,-1.312185526E0,2.819025040E0
8.350256896E0,1.178611636E0,-1.426625013E0,2.422720909E0
8.360363896E0,4.464022517E-1,-1.272091627E0,1.961133957E0
8.370497896E0,7.331198454E-2,-1.230171442E0,1.570497513E0
8.380271896E0,1.433259249E-2,-1.227720022E0,1.209453583E0
8.390368896E0,1.113664508E-1,-1.110733747E0,6.441993713E-1
8.400277896E0,2.957462072E-1,-8.785035610E-1,-2.675151825E-2
8.410326896E0,6.686288118E-1,-6.999883652E-1,-6.675157547E-1
8.420315896E0,1.179724216E0,-6.617593765E-1,-1.171447277E0
8.430314896E0,1.715907931E0,-7.460865974E-1,-1.409671783E0
8.440286896E0,2.053938389E0,-8.293926716E-1,-1.304609299E0
8.450247896E0,2.160711527E0,-9.024748802E-1,-1.128901005E0
8.460457896E0,2.167560577E0,-1.019683838E0,-9.138231277E-1
8.470314896E0,2.071558237E0,-1.129202127E0,-6.800422668E-1
8.480269896E0,1.911470175E0,-1.244766474E0,-6.293230057E-1
8.490294896E0,1.712179422E0,-1.339328766E0,-6.897087097E-1
8.500354896E0,1.450056791E0,-1.347683191E0,-8.638639450E-1
8.510320896E0,1.156031609E0,-1.262628794E0,-1.077963829E0
8.520361896E0,9.265171885E-1,-1.169375420E0,-1.339037418E0
8.530294896E0,8.206540346E-1,-1.107563257E0,-1.572074413E0
8.540616896E0,7.115781307E-1,-1.052618504E0,-1.865281105E0
8.550387896E0,5.889021158E-1,-9.832029343E-1,-2.262657166E0
8.560302896E0,5.016484261E-1,-8.889372349E-1,-2.585681438E0
8.570404896E0,4.557374120E-1,-7.839848995E-1,-2.846877575E0
8.580401896E0,4.172700644E-1,-6.811745167E-1,-3.031365871E0
8.590482896E0,3.748095632E-1,-5.652132034E-1,-3.114904404E0
8.600312896E0,3.667232394E-1,-3.844819069E-1,-3.048596382E0
8.610340896E0,4.133430719E-1,-1.393470764E-1,-2.930509567E0
8.620485896E0,5.282452106E-1,2.715921402E-2,-2.691968918E0
8.630343896E0,7.127209306E-1,1.192779541E-1,-2.393115997E0
8.640454896E0,8.828775883E-1,2.349362373E-1,-1.979931355E0
8.650283896E0,1.069090843E0,3.712000847E-1,-1.543921471E0
8.660392896E0,1.225012541E0,4.455327988E-1,-1.091349125E0
8.670365896E0,1.325071931E0,5.781116486E-1,-5.422954559E-1
8.680329896E0,1.422119141E0,6.967802048E-1,-1.171054840E-1
8.690337896E0,1.432949901E0,7.527108192E-1,2.869625092E-1
8.700302896E0,1.257934570E0,8.344941139E-1,7.596349716E-1
8.711291896E0,8.761109114E-1,9.930992126E-1,1.173595428E0
8.720348896E0,4.951683879E-1,1.178579807E0,1.597698212E0
8.730570896E0,2.255085111E-1,1.255581379E0,1.963831902E0
8.740315896E0,4.799270630E-2,1.293869972E0,2.214470863E0
8.751769896E0,-3.619325161E-2,1.382645607E0,2.366856575E0
8.760318896E0,-1.223218441E-2,1.408655167E0,2.396876335E0
8.770290896E0,-4.963004589E-2,1.483570576E0,2.305419922E0
8.780331896E0,-8.745098114E-2,1.589585304E0,2.189888000E0
8.790425896E0,-8.913862705E-2,1.637357235E0,2.102172852E0
8.800398896E0,-4.761254787E-2,1.650178909E0,2.237509727E0
8.810298896E0,1.675212979E-1,1.613057137E0,2.468807220E0
8.820327896E0,4.752817750E-1,1.465680122E0,2.765822411E0
8.830696896E0,7.374769449E-1,1.311408520E0,3.162186623E0
8.843409896E0,1.290307999E0,6.608848572E-1,3.798339844E0
8.860845896E0,1.097915649E0,-3.096671104E-1,3.758399010E0
8.870376896E0,1.043456435E0,-2.837457657E-1,3.306954384E0
8.880473896E0,-4.764199257E-4,-9.635415077E-1,2.651723862E0
8.890352896E0,-5.064206719E-1,-1.131092310E0,1.947689056E0
8.900365896E0,-8.324459195E-1,-1.222533703E0,1.287773132E0
8.910344896E0,-1.051648855E0,-1.230682611E0,7.214775085E-1
8.920342896E0,-1.152587175E0,-1.188427448E0,2.512598038E-1
8.930323896E0,-1.053841352E0,-1.232785940E0,-1.828393936E-1
8.940287896E0,-9.200292826E-1,-1.312170744E0,-5.966777802E-1
8.950625896E0,-7.296686172E-1,-1.437591076E0,-9.499955177E-1
8.960364896E0,-5.352299809E-1,-1.559361219E0,-1.187195301E0
8.970382896E0,-3.110110164E-1,-1.677982330E0,-1.268880844E0
8.980377896E0,-1.731435657E-1,-1.760023594E0,-1.306251526E0
8.990353896E0,-6.244403124E-2,-1.793838739E0,-1.237313271E0
9.000351896E0,-6.081420183E-2,-1.801870346E0,-1.246437073E0
9.010313896E0,-2.551776171E-2,-1.879240751E0,-1.325086117E0
9.020295896E0,-3.380659223E-2,-1.916542292E0,-1.362284184E0
9.030287896E0,-1.057961881E-1,-1.832923651E0,-1.325114727E0
9.040358896E0,-1.130994856E-1,-1.774276018E0,-1.207901955E0
9.050794896E0,-1.467692256E-1,-1.772660255E0,-1.052357197E0
9.060319896E0,-2.461286187E-1,-1.696045876E0,-1.018838406E0
9.070328896E0,-3.456268013E-1,-1.615335941E0,-1.114406109E0
9.080400896E0,-3.616459370E-1,-1.565573454E0,-1.126854897E0
9.090480896E0,-3.702704906E-1,-1.441231966E0,-1.267297745E0
9.100295896E0,-2.835299671E-1,-1.378944635E0,-1.380541325E0
9.110287896E0,-1.921343207E-1,-1.297788858E0,-1.455655098E0
9.120357896E0,-1.625960171E-1,-1.120270252E0,-1.522613525E0
9.130400896E0,-1.156193614E-1,-9.584240913E-1,-1.466851711E0
9.140315896E0,3.301665187E-2,-8.949742317E-1,-1.345303535E0
9.151447896E0,2.150154412E-1,-7.858638763E-1,-1.180329800E0
9.160346896E0,4.355912209E-1,-6.296792030E-1,-1.001211643E0
9.170289896E0,7.097116709E-1,-5.295929909E-1,-8.973288536E-1
9.180281896E0,8.922097087E-1,-5.126438141E-1,-1.020108700E0
9.190351896E0,9.114720225E-1,-4.839897156E-1,-1.198543549E0
9.200260896E0,8.025705814E-1,-3.650083542E-1,-1.327048779E0
9.210302896E0,6.803526282E-1,-2.918629646E-1,-1.380527020E0
9.220709896E0,5.598482490E-1,-2.580356598E-1,-1.298148155E0
9.230280896E0,4.134577215E-1,-1.579093933E-1,-1.112733841E0
9.240323896E0,2.654283047E-1,-4.790782928E-2,-8.605999947E-1
9.250273896E0,1.530307233E-1,8.178615570E-2,-5.163550377E-1
9.260306896E0,1.372433901E-1,1.863417625E-1,-1.370325089E-1
9.270429896E0,1.433978081E-1,3.069319725E-1,1.423492432E-1
9.280286896E0,1.606777310E-1,4.035229683E-1,4.340009689E-1
9.290317896E0,2.162454724E-1,4.769964218E-1,7.577562332E-1
9.300267896E0,2.386996150E-1,5.482077599E-1,1.143830299E0
9.310450896E0,1.728046536E-1,6.717977524E-1,1.720086098E0
9.320665896E0,1.536399126E-2,9.051337242E-1,2.238969803E0
9.330302896E0,-2.038901448E-1,1.110782146E0,2.782717705E0
9.340323896E0,-3.983308673E-1,1.280368805E0,3.206518173E0
9.350564896E0,-4.090816975E-1,1.310687065E0,3.524229050E0
9.360580896E0,-9.138244390E-2,1.207144737E0,3.717450142E0
9.370774896E0,5.184282660E-1,9.529113770E-1,3.793683052E0
9.380326896E0,1.235580802E0,7.046909332E-1,3.917122841E0
9.390282896E0,1.800355911E0,5.128169060E-1,4.087578773E0
9.400391896E0,2.188235760E0,3.120408058E-1,4.318424225E0
9.410801896E0,2.466739178E0,-4.422452450E-1,4.438264847E0
9.420305896E0,2.082090616E0,-7.299215794E-1,4.225399971E0
9.430326896E0,1.544233441E0,-1.120260239E0,3.650753021E0
9.440330896E0,9.041875601E-1,-1.366906166E0,2.793918610E0
9.450322896E0,1.846110821E-1,-1.335607052E0,1.889479637E0
9.460268896E0,-3.274899125E-1,-1.247444153E0,1.027896881E0
9.470412896E0,-6.133143306E-1,-1.146867514E0,3.677930832E-1
9.480475896E0,-7.300982475E-1,-9.689297676E-1,-2.331819534E-1
9.490438896E0,-6.182304621E-1,-8.541252613E-1,-8.433289528E-1
9.500344896E0,-2.114986181E-1,-8.543550968E-1,-1.427313328E0
9.510319896E0,4.411037564E-1,-9.341099262E-1,-1.835106373E0
9.520271896E0,1.184619665E0,-1.076592445E0,-2.042135239E0
9.530646896E0,1.780439377E0,-1.199750900E0,-2.051487923E0
9.540312896E0,2.214619160E0,-1.273966312E0,-1.858054161E0
9.550266896E0,2.424462318E0,-1.370233536E0,-1.690502644E0
9.560478896E0,2.385719776E0,-1.531021357E0,-1.580791473E0
9.570355896E0,2.026421547E0,-1.697487831E0,-1.604812145E0
9.580314896E0,1.440054297E0,-1.708781004E0,-1.782647610E0
9.590584896E0,8.524676561E-1,-1.627951384E0,-1.986961842E0
9.600379896E0,3.789342642E-1,-1.556887865E0,-2.143295288E0
9.610479896E0,6.408506632E-2,-1.441307783E0,-2.227063179E0
9.620401896E0,-1.652510166E-1,-1.346771002E0,-2.208325863E0
9.630304896E0,-2.322891951E-1,-1.249342203E0,-2.185195923E0
9.640386896E0,-1.685695648E-1,-1.123626709E0,-2.175559044E0
9.650433896E0,2.002167702E-2,-1.031113148E0,-2.255706787E0
9.660414896E0,2.162277699E-1,-9.675798416E-1,-2.301053524E0
9.673153896E0,3.361046314E-1,-8.067555428E-1,-2.331438541E0
9.690455896E0,5.044670701E-1,-5.025248528E-1,-2.234985828E0
9.700394896E0,5.778720379E-1,-3.463110924E-1,-2.100371361E0
9.710411896E0,6.303889751E-1,-2.178301811E-1,-1.871512890E0
9.720393896E0,7.633886337E-1,-8.407306671E-2,-1.382814884E0
9.730548896E0,9.378082156E-1,-2.803325653E-3,-9.690999985E-1
9.740288896E0,1.103610635E0,4.459047318E-2,-5.794916153E-1
9.750253896E0,1.187413454E0,1.509408951E-1,-2.584381104E-1
9.760431896E0,1.159694314E0,3.278961182E-1,-7.331180573E-2
9.770554896E0,1.121817827E0,5.427074432E-1,9.033393860E-2
9.780318896E0,9.765361547E-1,6.957178116E-1,3.458843231E-1
9.790526896E0,8.040233254E-1,7.329545021E-1,6.351070404E-1
9.800377896E0,5.791216493E-1,7.130136490E-1,9.143648148E-1
9.810424896E0,3.701075017E-1,7.893710136E-1,1.197408676E0
9.820347896E0,2.554394901E-1,9.598836899E-1,1.506528854E0
9.830499896E0,1.459331810E-1,1.090715885E0,1.822648048E0
9.840436896E0,6.325407326E-2,1.196208477E0,2.150670052E0
9.850467896E0,1.281546503E-1,1.199325085E0,2.508969307E0
9.860353896E0,2.255418897E-1,1.105453491E0,2.714253426E0
9.870345896E0,2.778047919E-1,9.767355919E-1,2.788900375E0
9.880427896E0,1.523104906E-1,9.769134521E-1,2.790533066E0
9.890575896E0,-1.643641591E-1,1.114030838E0,2.729214668E0
9.900447896E0,-5.113549232E-1,1.276456356E0,2.733666420E0
9.910311896E0,-7.939722538E-1,1.360770226E0,2.760816574E0
9.923278896E0,-9.673545361E-1,1.363644123E0,2.798495293E0
9.940314896E0,-8.191390038E-1,8.489527702E-1,2.930829048E0
9.951142896E0,2.195472866E-1,-4.628734589E-1,3.000708580E0
9.960285896E0,3.718642592E-1,-9.878544807E-1,2.976489067E0
9.970904896E0,7.697886229E-2,-1.291544199E0,2.893399239E0
9.980422896E0,-4.794484377E-1,-1.601941824E0,2.564444542E0
9.991295896E0,-1.108773589E0,-1.851055861E0,2.005325317E0
1.000029090E1,-1.804420471E0,-1.954297066E0,1.500038147E0
1.001059690E1,-2.426836252E0,-1.918622732E0,1.033041000E0
1.002038290E1,-2.828278542E0,-1.868612289E0,6.811552048E-1
1.003039590E1,-2.952258348E0,-1.826041222E0,3.972301483E-1
1.004030990E1,-2.845025301E0,-1.821362734E0,6.636810303E-2
1.005049290E1,-2.505735636E0,-1.865820169E0,-2.414102554E-1
1.006064590E1,-1.953493595E0,-1.953722000E0,-4.856519699E-1
1.007097090E1,-1.343262434E0,-2.008914709E0,-6.270017624E-1
1.008043690E1,-8.638367653E-1,-2.050225496E0,-6.385788918E-1
1.009061290E1,-4.958209991E-1,-2.079103231E0,-6.040759087E-1
1.010036390E1,-2.248800993E-1,-2.074185610E0,-6.457600594E-1
1.011064790E1,-8.900702000E-2,-2.089148045E0,-7.111353874E-1
1.012037290E1,-6.318137050E-2,-2.072697163E0,-7.721862793E-1
1.013028990E1,-1.152798533E-1,-1.976747274E0,-8.664216995E-1
1.014088790E1,-2.875748873E-1,-1.813551664E0,-8.602051735E-1
1.015031590E1,-5.232570767E-1,-1.664644241E0,-7.272448540E-1
1.016030890E1,-7.677016854E-1,-1.547240257E0,-5.476322174E-1
1.017032490E1,-9.231193066E-1,-1.481585503E0,-4.868183136E-1
1.018045790E1,-9.178708196E-1,-1.536718130E0,-5.709280968E-1
1.019035390E1,-8.258136511E-1,-1.623897791E0,-7.331638336E-1
1.020024590E1,-8.236136436E-1,-1.589320898E0,-1.097071648E0
1.021027890E1,-7.973824739E-1,-1.486655951E0,-1.536048412E0
1.022031690E1,-6.596228480E-1,-1.434780121E0,-1.964146614E0
1.023034990E1,-5.362297893E-1,-1.371433258E0,-2.368540287E0
1.024030290E1,-5.284236670E-1,-1.248846531E0,-2.698983669E0
1.025025590E1,-5.941599011E-1,-1.066952229E0,-2.769471645E0
1.026033390E1,-6.922901273E-1,-9.157543182E-1,-2.671743393E0
1.027029790E1,-7.522661686E-1,-8.101687431E-1,-2.428556442E0
1.028032090E1,-7.597213387E-1,-7.411413193E-1,-2.044644833E0
1.029027090E1,-7.532386780E-1,-7.066941261E-1,-1.583606243E0
1.030025790E1,-7.171601057E-1,-6.180973053E-1,-1.081725597E0
1.031047290E1,-6.660244465E-1,-5.543961525E-1,-5.905132294E-1
1.032027090E1,-5.421943665E-1,-4.896893501E-1,-7.428455353E-2
1.033038390E1,-5.168199539E-1,-4.098825455E-1,2.707128525E-1
1.034038590E1,-6.467698812E-1,-2.827529907E-1,5.960626602E-1
1.035089690E1,-8.559648991E-1,-1.145944595E-1,9.339313507E-1
1.036038590E1,-1.000644445E0,2.131986618E-2,1.329275131E0
1.037361190E1,-4.809657633E-1,3.803725243E-1,2.043972969E0
1.039033390E1,-3.576129079E-1,3.853158951E-1,2.320968628E0
1.040033790E1,-2.298897803E-1,4.235467911E-1,2.514330864E0
1.041037190E1,-1.934507489E-1,4.758915901E-1,2.657493591E0
1.042031790E1,-2.127529085E-1,5.897645950E-1,2.799685478E0
1.043034590E1,-3.070030212E-1,7.454957962E-1,2.815835953E0
1.044064690E1,-4.107907116E-1,8.897247314E-1,2.800297737E0
1.045027690E1,-4.891237617E-1,9.856190681E-1,2.753830910E0
1.046031490E1,-5.053207874E-1,1.037752151E0,2.687910080E0
1.047033490E1,-4.165000021E-1,1.041564465E0,2.629391670E0
1.048032890E1,-2.349452078E-1,9.962477684E-1,2.568094254E0
1.049369990E1,6.964908838E-1,8.397579193E-1,2.904366493E0
1.051042090E1,1.782663584E0,8.041381836E-3,3.138613701E0
1.052038590E1,1.905696869E0,-3.738908768E-1,2.989013672E0
1.053039890E1,1.765956879E0,-7.191758156E-1,2.700797081E0
1.054287790E1,1.568741918E0,-1.177874088E0,2.294130325E0
1.056045690E1,5.653735399E-1,-1.687989712E0,1.311919212E0
1.057406090E1,-1.142562628E-1,-1.570587158E0,7.329463959E-1
1.059030990E1,-8.024901152E-1,-1.461078644E0,-4.109258652E-1
1.060026990E1,-9.523971081E-1,-1.229678631E0,-8.439955711E-1
1.061055090E1,-8.868458867E-1,-1.044200182E0,-1.171673775E0
1.062030390E1,-5.015808344E-1,-1.021786928E0,-1.631995678E0
1.063098890E1,1.026049554E-1,-1.183022976E0,-2.067286015E0
1.064030690E1,6.984695196E-1,-1.297220945E0,-2.299314499E0
1.065039190E1,1.072974086E0,-1.283077002E0,-2.355913162E0
1.066029790E1,1.285779476E0,-1.386035919E0,-2.206768513E0
1.067030690E1,1.468872786E0,-1.596020937E0,-1.904934883E0
1.068024090E1,1.475671411E0,-1.721407175E0,-1.533644199E0
1.069158490E1,1.301153064E0,-1.733415604E0,-1.123164654E0
1.070032190E1,1.038767934E0,-1.748162270E0,-8.172216415E-1
1.071032990E1,6.229207516E-1,-1.696052551E0,-7.713952065E-1
1.072225290E1,1.865842938E-1,-1.539571762E0,-7.588081360E-1
1.073026590E1,-1.847867072E-1,-1.339078426E0,-8.013954163E-1
1.074027090E1,-4.294384718E-1,-1.199427128E0,-8.069467545E-1
1.075026490E1,-5.145964622E-1,-1.147151470E0,-7.811470032E-1
1.076048890E1,-5.161392093E-1,-1.111401081E0,-8.543810844E-1
1.077030490E1,-5.124446750E-1,-1.005749702E0,-1.058803082E0
1.078031990E1,-5.044433475E-1,-8.735845089E-1,-1.295654774E0
1.079032790E1,-4.325743318E-1,-6.977987289E-1,-1.553274632E0
1.080025490E1,-2.868180275E-1,-5.126237869E-1,-1.756008625E0
1.081034790E1,-4.440021515E-2,-3.346114159E-1,-1.847230434E0
1.082035990E1,2.886204123E-1,-1.747436523E-1,-1.843037605E0
1.083031790E1,6.318035126E-1,-5.219602585E-2,-1.788023949E0
1.084032990E1,8.893023729E-1,7.679033279E-2,-1.633942604E0
1.085029690E1,1.006546140E0,2.461843491E-1,-1.423301220E0
1.086031590E1,1.099213600E0,3.364119530E-1,-1.132918358E0
1.087160290E1,1.086306334E0,3.894391060E-1,-6.447157860E-1
1.088037790E1,9.322934151E-1,4.699158669E-1,-1.417236328E-1
1.089034290E1,7.151218653E-1,5.096001625E-1,3.254327774E-1
1.090030990E1,4.356447458E-1,4.873290062E-1,7.615079880E-1
1.091062790E1,1.022421718E-1,5.821347237E-1,1.156270027E0
1.092034490E1,-2.294156551E-1,7.351942062E-1,1.441893578E0
1.093046790E1,-4.447826743E-1,8.304963112E-1,1.644467354E0
1.094031390E1,-5.341160297E-1,8.652968407E-1,1.785222054E0
1.095026090E1,-5.311843157E-1,9.300904274E-1,1.897027016E0
1.096029590E1,-4.775249958E-1,9.976201057E-1,2.048366547E0
1.097036190E1,-2.933251858E-1,1.002877712E0,2.080883026E0
1.098030990E1,5.087971687E-3,1.012212753E0,2.178383827E0
1.099026790E1,2.822869420E-1,1.060591698E0,2.223882675E0
1.100038790E1,4.767528176E-1,1.126367569E0,2.208425522E0
1.101065690E1,5.323452950E-1,1.204528332E0,1.766226768E0
1.102030990E1,3.439214230E-1,1.294745445E0,1.784580231E0
1.103031290E1,1.184421182E-1,1.277089119E0,1.400403976E0
1.104034290E1,-2.132135630E-2,1.063471317E0,1.376333237E0
1.105046990E1,1.314759254E-1,7.227563858E-1,1.629987717E0
1.106033990E1,3.912603259E-1,2.197055817E-1,2.040271759E0
1.107046090E1,5.519602299E-1,-2.859539986E-1,2.313693047E0
1.108041290E1,5.347554684E-1,-6.849994659E-1,2.516966820E0
1.109033590E1,2.876631618E-1,-9.333591461E-1,2.579215050E0
1.110027090E1,-1.492760777E-1,-1.237364292E0,2.317956924E0
1.111029990E1,-6.888843775E-1,-1.477208853E0,1.806730270E0
1.112028390E1,-1.220506907E0,-1.473247528E0,1.193971634E0
1.113026890E1,-1.669765472E0,-1.326257944E0,7.071228027E-1
1.114031590E1,-1.891615391E0,-1.216015577E0,3.043785095E-1
1.115028490E1,-1.934828043E0,-1.140132666E0,-4.620933533E-2
1.116035090E1,-1.838336706E0,-1.042140484E0,-3.903760910E-1
1.117029190E1,-1.563151836E0,-1.012559414E0,-6.602530479E-1
1.118043690E1,-1.081323981E0,-1.111756086E0,-7.843027115E-1
1.119028590E1,-5.085419416E-1,-1.279312134E0,-7.346186638E-1
1.120028290E1,-2.656030655E-2,-1.412960291E0,-5.499310493E-1
1.121038390E1,3.141322732E-1,-1.482806921E0,-3.690080643E-1
1.122035190E1,5.762966275E-1,-1.576041460E0,-2.607564926E-1
1.123065290E1,7.072633505E-1,-1.695397854E0,-1.983537674E-1
1.124027590E1,7.165876627E-1,-1.814997911E0,-2.259712219E-1
1.125034490E1,5.626554489E-1,-1.861417532E0,-3.587875366E-1
1.126033590E1,3.085297644E-1,-1.724804401E0,-5.242557526E-1
1.127102590E1,1.239394248E-1,-1.628211975E0,-7.072196007E-1
1.128030590E1,6.619080901E-2,-1.626563787E0,-9.155368805E-1
1.129037890E1,8.998236060E-2,-1.617715120E0,-1.173977375E0
1.130029590E1,9.644398093E-2,-1.554493189E0,-1.453429699E0
1.131052090E1,1.353166997E-1,-1.481415033E0,-1.794052601E0
1.132190590E1,1.428407431E-1,-1.422587395E0,-2.184052467E0
1.133033590E1,1.619992554E-1,-1.380295038E0,-2.517189503E0
1.134037290E1,2.106803358E-1,-1.330791712E0,-2.792041302E0
1.135030490E1,2.235253751E-1,-1.243106365E0,-2.917518139E0
1.136044090E1,2.722775638E-1,-1.078650951E0,-2.920118332E0
1.137028090E1,3.940680027E-1,-9.146466255E-1,-2.770273685E0
1.138025990E1,5.051814914E-1,-8.148331642E-1,-2.510741711E0
1.139052690E1,5.161834955E-1,-7.752728462E-1,-2.202693462E0
1.140077490E1,4.392725825E-1,-6.905822754E-1,-1.835305214E0
1.141030990E1,2.875059247E-1,-5.625581741E-1,-1.438690662E0
1.142035890E1,1.244806647E-1,-4.417581558E-1,-9.276528358E-1
1.143037390E1,2.110463381E-2,-3.584294319E-1,-3.943696022E-1
1.144033590E1,-1.552296281E-1,-3.167409897E-1,-1.500225067E-2
1.145149390E1,-3.705075085E-1,-1.924219131E-1,2.679662704E-1
1.146029890E1,-6.087503433E-1,-1.244735718E-2,5.234699249E-1
1.147049190E1,-7.761200666E-1,1.371779442E-1,7.690162659E-1
1.148038190E1,-7.449626327E-1,2.837586403E-1,1.056085587E0
1.149032190E1,-5.160945058E-1,3.574643135E-1,1.343035698E0
1.150033390E1,-2.145742178E-1,4.174776077E-1,1.613588333E0
1.151042290E1,4.609119892E-2,4.842267036E-1,1.751220703E0
1.152135490E1,1.652826071E-1,6.791906357E-1,2.098635674E0
1.153032190E1,1.884451509E-1,6.938419342E-1,2.091972351E0
1.154245490E1,-2.867712379E-1,9.271707535E-1,2.611558914E0
1.156032990E1,-4.216319323E-1,1.021722794E0,2.826486588E0
1.157041590E1,-6.262348890E-1,1.199335098E0,3.125753403E0
1.158037790E1,-5.046277642E-1,1.236366272E0,3.070382118E0
1.159031490E1,-2.672363520E-1,1.244049072E0,2.968569756E0
1.160037990E1,1.055976748E-1,1.259782314E0,2.952889442E0
1.161030190E1,5.890706778E-1,1.132528305E0,3.077496529E0
1.162164490E1,1.162145138E0,8.166570663E-1,3.258947372E0
1.163040690E1,1.578672171E0,3.749012947E-1,3.329347610E0
1.164026290E1,1.798164845E0,-7.778120041E-2,3.209194183E0
1.165051090E1,1.702676058E0,-4.361276627E-1,3.011734009E0
1.166029490E1,1.375614762E0,-7.342967987E-1,2.633766174E0
1.167069590E1,9.529132843E-1,-9.668369293E-1,2.191004753E0
1.168035490E1,4.803869128E-1,-1.037160158E0,1.657421112E0
1.169079790E1,1.735683680E-1,-1.107393265E0,1.044859886E0
1.170029490E1,4.596567154E-2,-1.127345324E0,4.779186249E-1
1.171048390E1,-4.034584761E-2,-9.992465973E-1,-4.018783569E-2
1.172030390E1,1.216256618E-2,-9.210271835E-1,-4.578638077E-1
1.173030190E1,2.159286737E-1,-9.612100124E-1,-9.502630234E-1
1.174070190E1,5.273854733E-1,-1.045639992E0,-1.432289600E0
1.175037790E1,8.527500033E-1,-1.090170622E0,-1.780950546E0
1.176057490E1,1.158676028E0,-1.161382914E0,-1.967947483E0
1.177036790E1,1.394166112E0,-1.251004934E0,-1.990000725E0
1.178044090E1,1.560953140E0,-1.321635008E0,-1.879642010E0
1.179053890E1,1.604440928E0,-1.417964458E0,-1.729077816E0
1.180045690E1,1.557201982E0,-1.540785074E0,-1.599033833E0
1.181106390E1,1.413092613E0,-1.612847567E0,-1.495771408E0
1.182037890E1,1.172008514E0,-1.568989515E0,-1.518077850E0
1.183185790E1,9.437417984E-1,-1.490597725E0,-1.673736095E0
1.184036890E1,6.989090443E-1,-1.434241772E0,-1.808882713E0
1.185030390E1,3.326538801E-1,-1.359242916E0,-1.932356358E0
1.186075890E1,-2.778285742E-2,-1.247601986E0,-2.029161453E0
1.187028890E1,-2.945554256E-1,-1.207230091E0,-2.127464771E0
1.188032290E1,-4.810529351E-1,-1.143841028E0,-2.157203674E0
1.189031090E1,-6.166738272E-1,-1.002313852E0,-2.181071281E0
1.190030890E1,-6.608312130E-1,-8.750672340E-1,-2.229841232E0
1.191035990E1,-6.041975021E-1,-7.169861794E-1,-2.206175804E0
1.192025390E1,-3.931103945E-1,-4.959888458E-1,-2.148825645E0
1.193026790E1,-1.265745163E-1,-3.166074753E-1,-2.010176659E0
1.194041490E1,1.127625108E-1,-9.598207474E-2,-1.758036137E0
1.195035790E1,3.550964594E-1,1.403484344E-1,-1.491103172E0
1.196032590E1,5.904717445E-1,2.838692665E-1,-1.295135021E0
1.197026890E1,6.957777739E-1,4.008550644E-1,-1.098849773E0
1.198033490E1,6.186395884E-1,5.923132896E-1,-9.539003372E-1
1.199031490E1,5.236898661E-1,7.885842323E-1,-7.476582527E-1
1.200032690E1,4.334071875E-1,9.592185020E-1,-3.919000626E-1
1.201030690E1,3.754572272E-1,1.006961346E0,2.051067352E-2
1.202027190E1,3.004966378E-1,9.027719498E-1,4.743366241E-1
1.203034390E1,5.091524124E-2,8.024296761E-1,1.028688431E0
1.204037190E1,-2.523460388E-1,8.168697357E-1,1.719638824E0
1.205027590E1,-4.312646985E-1,8.916559219E-1,2.270971298E0
1.206030090E1,-5.477156639E-1,9.195942879E-1,2.720990181E0
1.207027190E1,-6.305027008E-1,9.662418365E-1,2.974452019E0
1.208032390E1,-5.694642067E-1,1.026372910E0,3.138307571E0
1.209050290E1,-3.398931623E-1,1.054452419E0,3.272157669E0
1.210033990E1,4.381954670E-2,1.023077011E0,3.352091789E0
1.211026790E1,4.161184430E-1,1.057189941E0,3.219223976E0
1.212040490E1,2.527250051E-1,1.085613728E0,3.133432388E0
1.213030090E1,-5.976152420E-2,9.986124039E-1,3.062120438E0
1.214042290E1,-4.130442142E-1,8.480520248E-1,3.026317596E0
1.215024490E1,-7.404829860E-1,6.276226044E-1,3.067092896E0
1.216037590E1,-8.452804685E-1,3.546500206E-1,3.185974121E0
1.217047190E1,-6.618027091E-1,-6.572389603E-2,3.291533470E0
1.218028690E1,-3.158419728E-1,-5.778059959E-1,3.317554474E0
1.219030890E1,-7.026970387E-3,-1.051582336E0,3.231276512E0
1.220026990E1,1.053221822E-1,-1.372750998E0,2.937866211E0
1.221040190E1,-5.822730064E-2,-1.668685913E0,2.501377106E0
1.222043790E1,-4.172384143E-1,-1.880621433E0,1.897777557E0
1.223024990E1,-8.221647739E-1,-1.979255438E0,1.240336418E0
1.224032590E1,-1.156995773E0,-1.982586145E0,5.728130341E-1
1.225028290E1,-1.422390938E0,-1.976930380E0,-1.359176636E-2
1.226031390E1,-1.601188183E0,-1.990716934E0,-4.677643776E-1
1.227024090E1,-1.635841250E0,-1.962028980E0,-8.670725822E-1
1.228039190E1,-1.528739333E0,-1.879144430E0,-1.186752796E0
1.229036690E1,-1.243906498E0,-1.859041929E0,-1.395648003E0
1.230036690E1,-8.456403613E-1,-1.839114666E0,-1.452930450E0
1.231042490E1,-3.820501566E-1,-1.839360952E0,-1.362859726E0
1.232031590E1,7.667383552E-2,-1.890844345E0,-1.173032761E0
1.233062590E1,4.748045802E-1,-1.905788660E0,-9.310998917E-1
1.234033090E1,7.279335856E-1,-1.911990643E0,-7.455449104E-1
1.235047090E1,8.203017116E-1,-1.954073191E0,-6.097369194E-1
1.236040290E1,7.191148996E-1,-1.988100767E0,-4.858384132E-1
1.237031790E1,4.234468341E-1,-1.956561804E0,-4.756760597E-1
1.238031790E1,1.267846376E-1,-1.885635138E0,-5.862493515E-1
1.239033790E1,-1.152253747E-1,-1.846967220E0,-7.436060905E-1
1.240030990E1,-2.729991078E-1,-1.759701729E0,-9.036726952E-1
1.241048890E1,-3.469485641E-1,-1.684579372E0,-1.056423664E0
1.242032990E1,-3.854855001E-1,-1.629409790E0,-1.181171894E0
1.243048990E1,-3.613215089E-1,-1.596676588E0,-1.360479832E0
1.244046890E1,-3.399180770E-1,-1.561466932E0,-1.501623154E0
1.245050090E1,-3.433025181E-1,-1.507759571E0,-1.667948246E0
1.246031290E1,-3.725979626E-1,-1.460936546E0,-1.822567940E0
1.247038190E1,-3.780102730E-1,-1.386934757E0,-1.751173019E0
1.248061190E1,-3.812319934E-1,-1.252317429E0,-1.623330116E0
1.249034590E1,-3.734768927E-1,-1.078417778E0,-1.402019978E0
1.250078890E1,-3.449325562E-1,-9.249582291E-1,-1.147515774E0
1.251030090E1,-2.715678811E-1,-8.405447006E-1,-9.602103233E-1
1.252074190E1,-2.270473540E-1,-7.965431213E-1,-8.607530594E-1
1.253076590E1,-2.117006183E-1,-7.137255669E-1,-8.457140923E-1
1.254031690E1,-1.517150700E-1,-6.796159744E-1,-7.199659348E-1
1.255102790E1,-8.328434825E-2,-6.412448883E-1,-5.021572113E-1
1.256041790E1,-8.118730783E-2,-5.381155014E-1,-1.819682121E-1
1.257028390E1,-1.590296030E-1,-4.455218315E-1,1.795358658E-1
1.258031290E1,-2.973366082E-1,-4.210548401E-1,5.187168121E-1
1.259027690E1,-5.006800890E-1,-3.557701111E-1,8.775234222E-1
1.260079490E1,-7.145994902E-1,-2.360854149E-1,1.151527405E0
1.261046890E1,-8.470237851E-1,-1.323609352E-1,1.425520897E0
1.262025390E1,-8.328025341E-1,-5.586194992E-2,1.729763031E0
1.263030090E1,-7.583255768E-1,-1.972341537E-2,2.046639442E0
1.264030590E1,-6.517115831E-1,1.317005157E-1,2.279236794E0
1.265030690E1,-8.556648493E-1,4.047436714E-1,2.663702965E0
1.266029390E1,-1.035656929E0,5.541377068E-1,2.768074989E0
1.267035990E1,-1.212042451E0,7.001595497E-1,2.753136635E0
1.268035490E1,-1.195610762E0,7.250299454E-1,2.646660805E0
1.269044090E1,-9.514654279E-1,6.013045311E-1,2.541824341E0
1.270035190E1,-5.306048393E-1,4.521899223E-1,2.509803772E0
1.271032290E1,-4.474925995E-2,3.237695694E-1,2.629218102E0
1.272024190E1,4.944718778E-1,1.729393005E-2,2.923810959E0
1.273032590E1,9.341408610E-1,-3.465976715E-1,3.412933350E0
1.274036190E1,1.143448830E0,-7.606863976E-1,3.784894943E0
1.275049990E1,9.643441439E-1,-1.149800062E0,4.024499893E0
1.276039090E1,4.703733027E-1,-1.383692980E0,3.995100975E0
1.277035190E1,-9.450358152E-2,-1.572124243E0,3.633339882E0
1.278032390E1,-4.743148088E-1,-1.641705275E0,3.079081535E0
1.279040690E1,-6.876290441E-1,-1.594039440E0,2.487188339E0
1.280048090E1,-7.456316948E-1,-1.532821178E0,1.855515480E0
1.281041390E1,-5.967767835E-1,-1.448754072E0,1.258596420E0
1.282032090E1,-2.611491680E-1,-1.418006897E0,6.618585587E-1
1.283033690E1,1.863697171E-1,-1.426401615E0,8.532524109E-3
1.284028290E1,7.198179960E-1,-1.473990679E0,-5.299153328E-1
1.285030390E1,1.228759050E0,-1.541426897E0,-7.701478004E-1
1.286032690E1,1.652571917E0,-1.623283386E0,-8.392128944E-1
1.287035290E1,1.991243720E0,-1.668120384E0,-7.715392113E-1
1.288034690E1,2.251661777E0,-1.725234985E0,-6.379690170E-1
1.289040290E1,2.360306740E0,-1.854998112E0,-5.332551003E-1
1.290044690E1,2.195525169E0,-1.874844313E0,-5.106854439E-1
1.291043890E1,1.853661537E0,-1.834704876E0,-5.258264542E-1
1.292024090E1,1.431914330E0,-1.788323402E0,-6.224532127E-1
1.293040390E1,1.068564177E0,-1.689557552E0,-8.390789032E-1
1.294048190E1,7.581048608E-1,-1.624958277E0,-1.114911556E0
1.295030190E1,5.351716876E-1,-1.572173595E0,-1.386873722E0
1.296030290E1,3.618428707E-1,-1.471170902E0,-1.692553520E0
1.297028090E1,2.908360362E-1,-1.359584808E0,-1.956640720E0
1.298048190E1,3.125349879E-1,-1.255205631E0,-2.243173122E0
1.299039690E1,3.857473731E-1,-1.160384178E0,-2.468328476E0
1.300039890E1,4.257389605E-1,-1.025202274E0,-2.619482994E0
1.301037690E1,4.587684274E-1,-8.536968231E-1,-2.669046879E0
1.302035690E1,5.545183420E-1,-6.349406242E-1,-2.542040348E0
1.303034590E1,6.365469694E-1,-4.620885849E-1,-2.275298119E0
1.304032490E1,7.806031704E-1,-3.225779533E-1,-1.840880394E0
1.305062590E1,9.415685534E-1,-2.763361931E-1,-1.450130463E0
1.306063890E1,1.036179185E0,-2.729449272E-1,-1.175642967E0
1.307063590E1,9.747099876E-1,-1.798081398E-1,-9.680137634E-1
1.308035090E1,8.500600457E-1,-4.017305374E-2,-6.476140022E-1
1.309033490E1,7.794752121E-1,-4.261970520E-3,-3.234267235E-1
1.310041990E1,7.082064152E-1,1.028347015E-2,-3.147125244E-3
1.311041590E1,5.909947753E-1,7.550573349E-2,3.978519440E-1
1.312031790E1,4.470971227E-1,1.222844124E-1,8.421669006E-1
1.313025990E1,5.979031324E-2,7.990455627E-2,1.279421806E0
1.314034790E1,-1.820068359E-1,1.233782768E-1,1.645495415E0
1.315032290E1,-4.555308223E-1,2.254920006E-1,1.893014908E0
1.316031290E1,-6.185299754E-1,3.255753517E-1,2.095555305E0
1.317023890E1,-6.317896843E-1,4.221725464E-1,2.263318062E0
1.318034490E1,-4.960929155E-1,5.049643517E-1,2.682933807E0
1.319031490E1,4.409283400E-2,6.923413277E-1,2.811877251E0
1.320035090E1,3.888951242E-1,7.246913910E-1,2.832459450E0
1.321030190E1,6.254125834E-1,7.815904617E-1,2.639708519E0
1.322118190E1,6.095877290E-1,9.505386353E-1,2.332911491E0
1.323038790E1,4.313465357E-1,1.025651455E0,2.057954788E0
1.324031490E1,1.906726360E-1,9.913992882E-1,1.819087982E0
1.325030190E1,7.106775045E-2,8.209147453E-1,1.624564171E0
1.326037990E1,-7.775187492E-3,6.620645523E-1,1.550419807E0
1.327041490E1,5.051875114E-2,3.799853325E-1,1.673136711E0
1.328033090E1,2.833660245E-1,-1.505441666E-1,2.072232246E0
1.329034190E1,3.863479197E-1,-6.434569359E-1,2.395333290E0
1.330028090E1,2.935321629E-1,-9.813857079E-1,2.612375259E0
1.331329490E1,1.172673702E-1,-1.316988945E0,2.725751877E0
1.333031890E1,-8.736857772E-1,-1.763871193E0,2.114643097E0
1.334039390E1,-1.347854853E0,-1.799950361E0,1.678417206E0
1.335031390E1,-1.698174000E0,-1.687375546E0,1.258199692E0
1.336034190E1,-1.863556147E0,-1.565321445E0,9.334383011E-1
1.337036990E1,-1.814528465E0,-1.508683681E0,6.453866959E-1
1.338040790E1,-1.599127889E0,-1.532548666E0,3.678588867E-1
1.339038290E1,-1.241132975E0,-1.623455763E0,5.274391174E-2
1.340033390E1,-7.983837128E-1,-1.736201525E0,-1.771411896E-1
1.341038390E1,-3.712767959E-1,-1.833482742E0,-2.343206406E-1
1.342028890E1,-2.516633272E-2,-1.880863905E0,-1.516213417E-1
1.343037690E1,2.575704455E-1,-1.872962952E0,8.494186401E-2
1.344036990E1,4.319293201E-1,-1.924602985E0,3.529272079E-1
1.345034290E1,5.110026598E-1,-2.028130293E0,6.464080811E-1
1.346041890E1,5.175834894E-1,-2.173528433E0,8.186702728E-1
1.347035990E1,4.251730442E-1,-2.256259203E0,7.066669464E-1
1.348032390E1,2.848423123E-1,-2.285892010E0,4.287118912E-1
1.349038290E1,1.226629019E-1,-2.194184303E0,3.401184082E-2
1.350033690E1,5.838379264E-2,-2.087847948E0,-3.688039780E-1
1.351051290E1,3.731128573E-2,-2.011301517E0,-7.797522545E-1
1.352035090E1,1.746192575E-2,-1.895561695E0,-1.195839882E0
1.353040490E1,6.605029106E-2,-1.791313171E0,-1.596892834E0
1.354035290E1,1.760883033E-1,-1.684267044E0,-1.889879227E0
1.355031590E1,3.160680234E-1,-1.583590984E0,-2.094629288E0
1.356034890E1,4.763557315E-1,-1.489053726E0,-2.214030743E0
1.357036490E1,5.741558075E-1,-1.419350147E0,-2.210781574E0
1.358029490E1,6.139013171E-1,-1.356696129E0,-2.102581978E0
1.359072690E1,5.687843561E-1,-1.321609497E0,-1.936296940E0
1.360029790E1,4.183904827E-1,-1.292151451E0,-1.802711487E0
1.361031890E1,2.426486760E-1,-1.238701820E0,-1.650633335E0
1.362036790E1,1.172881126E-1,-1.204929352E0,-1.561243057E0
1.363043790E1,-3.689795732E-3,-1.183804512E0,-1.406510353E0
1.364034790E1,-1.096776128E-1,-1.141182423E0,-1.139141083E0
1.365032290E1,-9.875661135E-2,-1.080093861E0,-7.942986488E-1
1.366026690E1,-1.078346372E-2,-1.092679024E0,-4.520149231E-1
1.367033790E1,3.044039011E-3,-1.144371033E0,-1.206130981E-1
1.368037590E1,-1.440182030E-1,-1.084153175E0,2.558393478E-1
1.369031490E1,-3.249289393E-1,-9.595894814E-1,5.825595856E-1
1.370028790E1,-4.732058346E-1,-8.662209511E-1,9.671182632E-1
1.371070590E1,-5.829557776E-1,-6.541132927E-1,1.275062561E0
1.372035090E1,-6.534643769E-1,-3.322281837E-1,1.885997772E0
1.373030490E1,-6.029962301E-1,-1.959323883E-3,1.928978920E0
1.374035390E1,-4.893061519E-1,1.124711037E-1,1.952227592E0
1.375039890E1,-4.409533143E-1,2.878198624E-1,1.839923859E0
1.376044590E1,-4.845007658E-1,5.018224716E-1,1.714868546E0
1.377032290E1,-5.739021897E-1,6.918540001E-1,1.592004776E0
1.378033590E1,-7.333051562E-1,8.996372223E-1,1.582178116E0
1.379034690E1,-9.027883410E-1,1.133832455E0,1.660778999E0
1.380211790E1,-9.913289547E-1,1.317013741E0,1.636619568E0
1.381045590E1,-9.224931002E-1,1.416272163E0,1.447503090E0
1.382033990E1,-7.153258324E-1,1.480540752E0,1.258590698E0
1.383043990E1,-3.679007292E-1,1.504676819E0,1.067609787E0
1.384044490E1,1.344611049E-1,1.354372501E0,1.063508987E0
1.385031690E1,6.721402407E-1,1.089379311E0,1.334045410E0
1.386082190E1,1.129225373E0,8.010635376E-1,1.886400223E0
1.387041790E1,1.335304022E0,4.384574890E-1,2.346561432E0
1.388063090E1,1.218451142E0,8.745241165E-2,2.874361992E0
1.389034090E1,9.053761959E-1,-1.842155457E-1,3.266485214E0
1.390045590E1,4.466473460E-1,-4.132595062E-1,3.185499191E0
1.391033490E1,-6.760621071E-2,-5.041985512E-1,2.766036034E0
1.392029890E1,-4.459809065E-1,-4.690406322E-1,2.296133041E0
1.393031190E1,-5.740758181E-1,-4.210863113E-1,1.800933838E0
1.394032490E1,-4.955083132E-1,-4.002952576E-1,1.321684837E0
1.395034690E1,-1.377937794E-1,-4.483742714E-1,8.157711029E-1
1.396040190E1,4.456156492E-1,-5.604629517E-1,2.463235855E-1
1.397039790E1,1.080708504E0,-6.466073990E-1,-1.970043182E-1
1.398030590E1,1.607465029E0,-7.203388214E-1,-4.798192978E-1
1.399036290E1,1.986102581E0,-7.785277367E-1,-6.799945831E-1
1.400035390E1,2.195574760E0,-7.389678955E-1,-8.014822006E-1
1.401032890E1,2.270968914E0,-6.830253601E-1,-8.362312317E-1
1.402024490E1,2.267647266E0,-7.006068230E-1,-7.586941719E-1
1.403040090E1,2.170654297E0,-7.537112236E-1,-6.036400795E-1
1.404044190E1,1.979613781E0,-8.573203087E-1,-4.153165817E-1
1.405048890E1,1.693737984E0,-9.060857296E-1,-2.820758820E-1
1.406027890E1,1.368952036E0,-9.496004581E-1,-2.397727966E-1
1.407028090E1,1.061009765E0,-9.791674614E-1,-2.711963654E-1
1.408070490E1,7.889093161E-1,-9.682836533E-1,-3.802661896E-1
1.409037090E1,5.980390310E-1,-9.205694199E-1,-5.419750214E-1
1.410038890E1,4.857845306E-1,-8.555934429E-1,-7.104606628E-1
1.411035390E1,4.271896482E-1,-7.719259262E-1,-8.478355408E-1
1.412033290E1,4.302846193E-1,-6.797623634E-1,-1.082599163E0
1.413035690E1,3.835767806E-1,-5.983967781E-1,-1.241910934E0
1.414029490E1,3.651844263E-1,-5.051264763E-1,-1.383522987E0
1.415033290E1,3.471137881E-1,-4.079747200E-1,-1.417463779E0
1.416030490E1,3.666671813E-1,-3.715000153E-1,-1.321545124E0
1.417039790E1,4.138376415E-1,-3.243927956E-1,-1.097247124E0
1.418034590E1,4.411163926E-1,-2.803602219E-1,-8.997192383E-1
1.419091290E1,4.888341427E-1,-2.536001205E-1,-6.300311089E-1
1.420069190E1,4.738502502E-1,-1.985011101E-1,-3.713254929E-1
1.421051790E1,3.889084160E-1,-1.297135353E-1,-1.650362015E-1
1.422100990E1,2.861152887E-1,-9.968376160E-2,1.056289673E-2
1.423061190E1,2.124751508E-1,-1.005258560E-1,1.726055145E-1
1.424313590E1,7.006767392E-2,-3.855562210E-2,3.349161148E-1
1.426038990E1,-9.768298268E-2,2.488374710E-2,3.851509094E-1
1.427185690E1,-3.482152820E-1,1.453304291E-1,2.903699875E-1
1.428033090E1,-3.805912435E-1,1.839199066E-1,1.177654266E-1
1.429041290E1,-3.832330108E-1,2.669701576E-1,-6.469726562E-3
1.430032790E1,-2.714165151E-1,3.127522469E-1,-2.711963654E-2
1.431035090E1,-9.781387448E-2,3.332710266E-1,6.277084351E-2
1.432036890E1,1.327373683E-1,3.191466331E-1,1.647319794E-1
1.433041890E1,3.762080073E-1,2.530508041E-1,2.246713638E-1
1.434048590E1,4.752547443E-1,2.172646523E-1,2.053356171E-1
1.435044090E1,3.807885647E-1,2.500581741E-1,8.550548553E-2
1.436028790E1,1.754759550E-1,2.588276863E-1,-1.003522873E-1
1.437025490E1,-8.746221662E-2,2.643847466E-1,-2.860145569E-1
1.438031490E1,-3.177314699E-1,2.923130989E-1,-3.784389496E-1
1.439033890E1,-4.488698840E-1,2.596583366E-1,-3.345460892E-1
1.440033990E1,-4.725978673E-1,1.827855110E-1,-2.009897232E-1
1.441069490E1,-4.953138530E-1,1.213841438E-1,1.507854462E-2
1.442029490E1,-5.667828321E-1,4.349660873E-2,1.507091522E-1
1.443030490E1,-6.676747799E-1,-6.985664368E-4,3.127536774E-1
1.444030690E1,-7.829611301E-1,1.392030716E-2,4.420490265E-1
1.445044490E1,-8.151344061E-1,-5.450344086E-2,4.598913193E-1
1.446036190E1,-8.344796300E-1,-1.265254021E-1,4.821949005E-1
1.447028690E1,-8.525724411E-1,-1.511416435E-1,3.537559509E-1
1.448034590E1,-8.349069357E-1,-1.532931328E-1,2.405347824E-1
1.449041990E1,-7.619930506E-1,-1.007385254E-1,8.216285706E-2
1.450033690E1,-6.371299028E-1,-7.100629807E-2,-9.605598450E-2
1.451033690E1,-4.957001805E-1,-3.550481796E-2,-2.545137405E-1
1.452033190E1,-3.926179409E-1,5.431365967E-2,-4.533853531E-1
1.453028490E1,-3.149141073E-1,1.361632347E-1,-5.855236053E-1
1.454029590E1,-1.968549788E-1,2.108826637E-1,-5.670413971E-1
1.455041290E1,9.108996391E-2,2.030520439E-1,-5.719823837E-1
1.456026090E1,2.169696987E-1,1.449160576E-1,-4.801845551E-1
1.457040390E1,3.077269793E-1,8.214330673E-2,-3.640384674E-1
1.458035290E1,3.884666860E-1,1.772403717E-2,-2.867031097E-1
1.459050690E1,4.308616519E-1,-2.513456345E-2,-1.883621216E-1
1.460031690E1,4.677135348E-1,-1.007509232E-1,-1.315269470E-1
1.461121890E1,4.212620854E-1,-1.971731186E-1,-1.708354950E-1
1.462040490E1,2.906135321E-1,-2.736063004E-1,-2.654333115E-1
1.463059790E1,1.452637613E-1,-2.443914413E-1,-3.797407150E-1
1.464048890E1,-4.066288471E-3,-1.332883835E-1,-4.418106079E-1
1.465029090E1,-1.202447414E-1,-5.048131943E-2,-3.339319229E-1
1.466043090E1,-1.669430137E-1,-7.461500168E-2,-1.653060913E-1
1.467033490E1,-1.774747372E-1,-1.475391388E-1,-5.192756653E-3
1.468033690E1,-2.733538151E-1,-1.549348831E-1,6.666278839E-2
1.469033690E1,-3.660461903E-1,-1.628937721E-1,1.838140488E-1
1.470035290E1,-4.216334224E-1,-1.699991226E-1,2.483835220E-1
1.471030590E1,-4.410204291E-1,-1.835951805E-1,3.036212921E-1
1.472029990E1,-4.345889091E-1,-2.016324997E-1,3.142499924E-1
1.473027790E1,-4.428175688E-1,-2.492113113E-1,2.320718765E-1
1.474032190E1,-4.004274607E-1,-2.470211983E-1,9.295177460E-2
1.475034390E1,-3.528243899E-1,-2.958841324E-1,-2.013587952E-2
1.476030890E1,-2.289342284E-1,-3.128566742E-1,-7.478237152E-2
1.477031990E1,-6.812196970E-2,-3.081779480E-1,-6.959819794E-2
1.478048090E1,1.084238291E-1,-3.520126343E-1,3.782749176E-2
1.479037490E1,2.472512722E-1,-4.124479294E-1,1.887550354E-1
1.480028190E1,3.149163127E-1,-4.452521801E-1,6.229066849E-1
1.481024590E1,2.448716760E-1,-5.628499985E-1,8.029880524E-1
1.482040690E1,9.044086933E-2,-6.242444515E-1,9.373455048E-1
1.483037490E1,-5.393677950E-2,-6.918973923E-1,1.078596115E0
1.484045290E1,-1.836527586E-1,-7.277557850E-1,1.090886116E0
1.485055290E1,-3.053027391E-1,-5.700874329E-1,9.697294235E-1
1.486153890E1,-3.476886153E-1,-4.232988358E-1,7.746038437E-1
1.487046690E1,-2.894474268E-1,-3.378689289E-1,5.796213150E-1
1.488065490E1,-1.565709114E-1,-2.328770161E-1,3.200139999E-1
1.489079190E1,2.816390991E-2,-1.008701324E-1,1.239662170E-1
1.490037890E1,2.135316730E-1,1.807212830E-2,-6.607532501E-2
1.491037590E1,3.759700656E-1,1.020267010E-1,-2.116136551E-1
1.492293590E1,4.424189329E-1,2.167696953E-1,-3.074531555E-1
1.494029090E1,3.601543307E-1,3.854324818E-1,-4.575529099E-1
1.495031290E1,2.119179964E-1,3.697593212E-1,-5.032472610E-1
1.496247490E1,1.177820563E-1,3.314661980E-1,-4.716825485E-1
1.497547940E1,1.290525794E-1,2.549707890E-1,-2.822885513E-1
1.499033190E1,9.140604734E-2,2.084407806E-1,-1.881046295E-1
1.500037190E1,3.055316210E-2,2.101502419E-1,-1.324939728E-1
1.501043290E1,1.243174076E-3,1.844024658E-1,-7.191371918E-2
1.502026790E1,-2.132087946E-2,1.713848114E-1,-1.732730865E-2
1.503026690E1,7.719099522E-3,1.633887291E-1,8.093833923E-2
1.504057990E1,6.401133537E-2,1.223578453E-1,2.120466232E-1
1.505045490E1,9.267443419E-2,1.059226990E-1,3.509969711E-1
1.506031490E1,8.676517010E-2,1.185374260E-1,5.054168701E-1
1.507043290E1,1.104087234E-1,1.055846214E-1,6.929197311E-1
1.508031890E1,1.437427402E-1,1.000957489E-1,9.155158997E-1
1.509176390E1,1.912754774E-1,9.194469452E-2,1.030885696E0
1.510063690E1,2.585697770E-1,4.549264908E-2,1.077165604E0
1.511046790E1,3.486928940E-1,2.690601349E-2,9.651069641E-1
1.512042990E1,4.368463755E-1,2.571773529E-2,7.470941544E-1
1.513103590E1,5.112128258E-1,2.667808533E-2,4.859266281E-1
1.514034390E1,6.305143237E-1,2.484798431E-2,2.181882858E-1
1.515065190E1,7.840555906E-1,3.980970383E-2,1.783561707E-2
1.516034890E1,9.069550037E-1,9.803485870E-2,-8.813762665E-2
1.517052290E1,9.773958921E-1,1.352767944E-1,-5.004119873E-2
1.518149490E1,1.033183813E0,1.087799072E-1,6.386375427E-2
1.519034390E1,1.003451467E0,6.659841537E-2,1.359834671E-1
1.520029390E1,8.864396811E-1,9.837484360E-2,1.086406708E-1
1.521038690E1,6.692305803E-1,1.701612473E-1,2.877044678E-2
1.522035490E1,4.395553470E-1,2.269930840E-1,2.493762970E-2
1.523028290E1,2.695173323E-1,2.566308975E-1,-5.252361298E-2
1.524030890E1,1.759102196E-1,3.095295429E-1,-1.768493652E-1
1.525031490E1,-9.155169129E-3,2.543735504E-1,-1.782255173E-1
1.526030090E1,-1.477793306E-1,2.193837166E-1,-1.328334808E-1
1.527022790E1,-2.542310357E-1,1.290798187E-1,-1.545095444E-1
1.528029090E1,-3.563375771E-1,-4.914426804E-2,-2.630624771E-1
1.529046690E1,-5.369738340E-1,-1.161673069E-1,-4.308576584E-1
1.530030390E1,-7.983669043E-1,-4.766654968E-2,-6.232662201E-1
1.531036990E1,-9.881907105E-1,6.475067139E-2,-7.016468048E-1
1.532030090E1,-1.102676153E0,1.986846924E-1,-6.985883713E-1
1.533154290E1,-1.191473126E0,4.661841393E-1,-5.679626465E-1
1.534037190E1,-1.097864628E0,5.186934471E-1,-5.670080185E-1
1.535031590E1,-9.084570408E-1,5.035681725E-1,-5.539979935E-1
1.536041790E1,-6.958157420E-1,3.952002525E-1,-6.670494080E-1
1.537038090E1,-5.514941812E-1,2.883334160E-1,-7.344007492E-1
1.538033490E1,-5.559815168E-1,2.195181847E-1,-7.411851883E-1
1.539042290E1,-6.361010671E-1,1.316728592E-1,-6.807785034E-1
1.540031790E1,-6.555711031E-1,-3.770828247E-2,-4.271583557E-1
1.541045390E1,-8.309690952E-1,-3.740596771E-2,-2.099704742E-1
1.542027790E1,-1.032097340E0,1.871061325E-2,5.026817322E-3
1.543027690E1,-1.137742877E0,7.844924927E-2,9.150791168E-2
1.544035190E1,-1.150288463E0,1.402716637E-1,5.509090424E-2
1.545037790E1,-1.084469676E0,2.283306122E-1,-6.156539917E-2
1.546042990E1,-1.091102123E0,3.539328575E-1,-1.672592163E-1
1.547027790E1,-9.232475758E-1,4.079689980E-1,-3.985147476E-1
1.548032490E1,-6.153513193E-1,3.936467171E-1,-6.691441536E-1
1.549045090E1,-2.855691910E-1,3.858866692E-1,-9.061880112E-1
1.550033390E1,9.907734394E-2,3.350586891E-1,-1.081985950E0
1.551027890E1,5.689564943E-1,2.439241409E-1,-1.055609226E0
1.552034590E1,9.927800894E-1,2.229309082E-1,-8.318176270E-1
1.553032890E1,1.202684641E0,2.380561829E-1,-4.650545120E-1
1.554034990E1,1.299841404E0,1.619668007E-1,6.809329987E-2
1.555034690E1,1.370056510E0,1.674318314E-2,5.766887665E-1
1.556027490E1,1.342859268E0,-1.038508415E-1,1.121463776E0
1.557043590E1,1.126385689E0,-1.144618988E-1,1.513330460E0
1.558060990E1,7.894693017E-1,-9.285449982E-2,1.737475395E0
1.559044290E1,4.229131937E-1,-1.268239021E-1,1.818484306E0
1.560043390E1,1.754165888E-1,-1.189866066E-1,1.515336990E0
1.561047190E1,7.055008411E-2,-1.046433449E-1,9.861583710E-1
1.562028090E1,5.191814899E-2,-1.195955276E-2,4.236764908E-1
1.563040290E1,5.654656887E-2,1.080179214E-1,-4.734992981E-2
1.564028290E1,8.079254627E-2,2.789306641E-1,-2.656106949E-1
1.565037690E1,6.098961830E-2,4.690046310E-1,-3.716602325E-1
1.566060290E1,1.224040985E-1,7.471933365E-1,-4.669761658E-1
1.567035290E1,3.710714579E-1,1.043902874E0,-5.010585785E-1
1.568031390E1,9.160473347E-1,1.243286133E0,-4.231567383E-1
1.569057890E1,1.608594179E0,1.371412277E0,-2.707872391E-1
1.570035890E1,2.190557003E0,1.480990410E0,2.272129059E-2
1.571030190E1,2.544617653E0,1.562897682E0,4.479942322E-1
1.572030190E1,2.756826401E0,1.585577488E0,8.252592087E-1
1.573026990E1,2.774595976E0,1.491968155E0,1.087508202E0
1.574058390E1,2.508501530E0,1.431275845E0,1.302316666E0
1.575046090E1,2.003054142E0,1.502319336E0,1.358238220E0
1.576038190E1,1.549516916E0,1.582959652E0,1.254311562E0
1.577028590E1,1.289693594E0,1.555934906E0,1.104936600E0
1.578041090E1,1.178709149E0,1.445035934E0,9.921998978E-1
1.579153190E1,1.222616315E0,1.320470810E0,9.493951797E-1
1.580030890E1,1.400173426E0,1.216075897E0,9.653072357E-1
1.581025390E1,1.687698245E0,1.077771664E0,1.028084755E0
1.582037590E1,2.003782511E0,9.440517426E-1,1.067041397E0
1.583051290E1,2.318210840E0,8.705697060E-1,1.045223236E0
1.584033890E1,2.584005594E0,8.025631905E-1,9.805402756E-1
1.585035890E1,2.778586388E0,7.395930290E-1,8.567657471E-1
1.586147790E1,2.916046619E0,6.594929695E-1,7.203102112E-1
1.587028990E1,3.028872013E0,5.579748154E-1,5.038890839E-1
1.588030990E1,3.045131207E0,4.450454712E-1,-3.119049072E-1
1.589046890E1,2.930042982E0,2.589430809E-1,-7.261738777E-1
1.590037590E1,2.799885511E0,1.861777306E-1,-1.017672539E0
1.591036890E1,2.623869896E0,1.204447746E-1,-1.133525848E0
1.592028490E1,1.338643670E0,-2.085528374E-1,-1.087537766E0
1.593033490E1,5.856375098E-1,-3.858680725E-1,-1.029475689E0
1.594032490E1,1.144086272E-1,-4.904408455E-1,-9.646301270E-1
1.595042190E1,-1.616783589E-1,-5.069594383E-1,-9.879736900E-1
1.596027790E1,-3.418410122E-1,-4.123210907E-1,-1.028203964E0
1.597034690E1,-3.989141583E-1,-3.051905632E-1,-1.027282715E0
1.598036890E1,-2.976246774E-1,-2.730846405E-1,-1.030641556E0
1.599034590E1,-1.206169352E-1,-2.589640617E-1,-1.109699249E0
1.600031890E1,2.995008230E-2,-2.010545731E-1,-1.218488693E0
1.601030290E1,1.681869626E-1,-1.789083481E-1,-1.286947250E0
1.602030090E1,2.215519100E-1,-1.868147850E-1,-1.368334293E0
1.603036990E1,1.881952286E-1,-1.511745453E-1,-1.405146599E0
1.604042090E1,1.304572225E-1,-1.635179520E-1,-1.379472733E0
1.605065790E1,3.111740947E-2,-1.934514046E-1,-1.305695534E0
1.606033190E1,-1.146267503E-1,-2.259483337E-1,-1.136478901E0
1.607033390E1,-2.649240494E-1,-2.212600708E-1,-9.666676521E-1
1.608029790E1,-3.467672765E-1,-2.316575050E-1,-7.897195816E-1
1.609038290E1,-3.855995536E-1,-2.615871429E-1,-6.023921967E-1
1.610030090E1,-3.722931743E-1,-2.356133461E-1,-4.669971466E-1
1.611128790E1,-3.109462261E-1,-2.191367149E-1,-3.750171661E-1
1.612030490E1,-2.138302326E-1,-2.231640816E-1,-3.885493279E-1
1.613031890E1,-1.769059300E-1,-1.809639931E-1,-4.875788689E-1
1.614032090E1,-2.184289098E-1,-1.341657639E-1,-6.695556641E-1
1.615034890E1,-2.650437355E-1,-9.040307999E-2,-7.429795265E-1
1.616030590E1,-3.125392795E-1,-8.835315704E-3,-7.005882263E-1
1.617026790E1,-3.098753691E-1,-1.221752167E-2,-5.882530212E-1
1.618022790E1,-2.944092155E-1,-5.489158630E-2,-3.632969856E-1
1.619045690E1,-3.337048888E-1,-3.552055359E-2,-7.881927490E-2
1.620029490E1,-3.912154734E-1,1.822948456E-3,1.984586716E-1
1.621031290E1,-4.112884998E-1,6.054401398E-3,3.904275894E-1
1.622063490E1,-3.566091359E-1,1.801395416E-2,5.229759216E-1
1.623034190E1,-2.647357881E-1,2.748107910E-2,4.774742126E-1
1.624029790E1,-1.677575260E-1,8.101797104E-2,2.734947205E-1
1.625040890E1,-1.412393153E-2,1.926736832E-1,5.579662323E-2
1.626027190E1,1.858988404E-1,2.589964867E-1,-1.740226746E-1
1.627038690E1,4.240021110E-1,3.133945465E-1,-3.882908821E-1
1.628040590E1,5.918163061E-1,3.346266747E-1,-5.436677933E-1
1.629047290E1,6.350611448E-1,3.826870918E-1,-6.082868576E-1
1.630031890E1,4.535070956E-1,3.386020660E-1,-4.451789856E-1
1.631059490E1,3.566054404E-1,3.469777107E-1,-1.842660904E-1
1.632033190E1,2.117450684E-1,2.989315987E-1,1.793670654E-1
1.633032290E1,6.991259754E-2,2.696204185E-1,4.823541641E-1
1.634030590E1,-4.425123334E-2,2.292499542E-1,7.334260941E-1
1.635040890E1,-1.658209264E-1,2.466130257E-1,9.657106400E-1
1.636044790E1,-2.207785100E-1,3.136959076E-1,1.128275871E0
1.637033990E1,-2.884079814E-1,3.379354477E-1,1.294236183E0
1.638031390E1,-3.066168427E-1,3.333711624E-1,1.362013817E0
1.639032190E1,-3.227539361E-1,3.022379875E-1,1.287387848E0
1.640036390E1,-3.365235627E-1,3.213014603E-1,1.222249031E0
1.641036090E1,-3.377234340E-1,3.919825554E-1,1.075881004E0
1.642035790E1,-3.134595156E-1,3.715081215E-1,7.787361145E-1
1.643036390E1,-3.216111064E-1,4.131822586E-1,6.416606903E-1
1.644056490E1,-3.045471907E-1,3.640322685E-1,5.515928268E-1
1.645033690E1,-2.688576579E-1,2.507429123E-1,5.286827087E-1
1.646026490E1,-1.829229295E-1,9.179544449E-2,5.865249634E-1
1.647046590E1,-6.564728916E-2,-4.030561447E-2,6.018781662E-1
1.648042590E1,7.505929470E-2,-2.038540840E-1,5.766267776E-1
1.649029490E1,2.012331188E-1,-3.343100548E-1,5.491628647E-1
1.650035390E1,2.032011449E-1,-4.508571625E-1,5.409460068E-1
1.651040190E1,2.601845264E-1,-6.043734550E-1,6.487169266E-1
1.652039490E1,1.235930473E-1,-7.156639099E-1,7.209587097E-1
1.653031390E1,-3.847962618E-2,-8.355207443E-1,7.768087387E-1
1.654029090E1,-2.047919631E-1,-9.759802818E-1,8.358497620E-1
1.655042690E1,-3.950198293E-1,-1.005876064E0,8.452901840E-1
1.656035790E1,-5.140033960E-1,-7.803769112E-1,7.164516449E-1
1.657044890E1,-4.883626401E-1,-7.155795097E-1,6.323175430E-1
1.658030790E1,-3.766795695E-1,-6.554780006E-1,5.891513824E-1
1.659027290E1,-2.196825147E-1,-5.572185516E-1,5.038795471E-1
1.660034690E1,-8.224433661E-2,-5.403573513E-1,4.117078781E-1
1.661030890E1,-3.386825323E-2,-4.999043941E-1,3.289108276E-1
1.662029590E1,-9.766781330E-2,-4.151771069E-1,2.297668457E-1
1.663029090E1,-2.561671138E-1,-3.691997528E-1,1.265449524E-1
1.664029890E1,-5.318191051E-1,-2.438793182E-1,-3.836154938E-2
1.665033690E1,-7.936467528E-1,-6.066894531E-2,-3.308229446E-1
1.666029390E1,-1.081605315E0,1.929082870E-1,-6.642389297E-1
1.667028990E1,-1.380808353E0,4.749321938E-1,-9.387822151E-1
1.668061690E1,-1.537449360E0,7.423596382E-1,-1.071032524E0
1.669030090E1,-1.454621792E0,8.500804901E-1,-1.057672024E0
1.670032490E1,-1.285025120E0,8.130073547E-1,-8.307614326E-1
1.671029490E1,-1.090789437E0,7.299671173E-1,-3.874359131E-1
1.672031790E1,-1.006528378E0,6.549348831E-1,6.594371796E-2
1.673028590E1,-9.484968185E-1,5.283794403E-1,4.229431152E-1
1.674030290E1,-9.252307415E-1,3.212847710E-1,6.904678345E-1
1.675039290E1,-9.482073188E-1,1.026396751E-1,8.217277527E-1
1.676037190E1,-1.073912859E0,-1.200489998E-1,8.019371033E-1
1.677052790E1,-1.081577420E0,-4.044141769E-1,5.935335159E-1
1.678029890E1,-9.835761786E-1,-6.716299057E-1,3.168764114E-1
1.679036290E1,-7.958314419E-1,-7.833108902E-1,1.209640503E-1
1.680035090E1,-5.623390079E-1,-8.191173077E-1,7.603645325E-3
1.681037790E1,-3.004985452E-1,-8.297622204E-1,4.848384857E-2
1.682028290E1,-1.159794927E-1,-7.729713917E-1,-4.029369354E-2
1.683027790E1,-5.333030224E-2,-7.857182026E-1,-2.558536530E-1
1.684030790E1,-7.025438547E-2,-7.820086479E-1,-6.283674240E-1
1.685048990E1,-8.109307289E-2,-5.909883976E-1,-1.061559677E0
1.686027790E1,-1.590240002E-1,-4.197897911E-1,-1.474955082E0
1.687047290E1,-2.494716644E-1,-3.388252258E-1,-1.775394917E0
1.688060190E1,-1.911412477E-1,-2.763767242E-1,-2.065816402E0
1.689031390E1,-1.121096015E-1,-1.706118584E-1,-2.322421074E0
1.690034290E1,-6.285250187E-3,-3.894519806E-2,-2.449195385E0
1.691028390E1,7.486146688E-2,8.344030380E-2,-2.575712204E0
1.692039090E1,1.022853851E-1,1.963591576E-1,-2.703478813E0
1.693036090E1,-7.702827454E-3,3.340096474E-1,-2.757325649E0
1.694032790E1,-1.117304564E-1,4.892506599E-1,-2.692999363E0
1.695034290E1,-2.245772481E-1,6.132321358E-1,-2.464598179E0
1.696060190E1,-3.349452615E-1,7.554502487E-1,-1.407175064E0
1.697032490E1,-3.822726607E-1,7.897157669E-1,-8.096747398E-1
1.698031490E1,-4.685680270E-1,8.243551254E-1,-4.459810257E-1
1.699031090E1,-6.550945640E-1,8.924694061E-1,-2.448339462E-1
1.700038590E1,-8.748376966E-1,1.030674458E0,-1.947002411E-1
1.701045290E1,-9.355160594E-1,1.137527466E0,-1.174364090E-1
1.702028290E1,-8.611136079E-1,1.185097694E0,8.517074585E-2
1.703032290E1,-4.330149889E-1,7.696275711E-1,6.584386826E-1
1.704028490E1,-1.250213385E-1,5.395579338E-1,1.066140175E0
1.705031890E1,-1.168251038E-4,4.440455437E-1,1.319403648E0
1.706032690E1,-1.240849495E-2,3.973159790E-1,1.508085251E0
1.707027990E1,-1.764676571E-1,4.867539406E-1,1.679406166E0
1.708035490E1,-3.505129814E-1,5.831594467E-1,1.745283127E0
1.709032490E1,-4.052325487E-1,5.927915573E-1,1.849863052E0
1.710030890E1,-2.982810736E-1,5.620851517E-1,1.826364517E0
1.711028890E1,-8.855712414E-2,5.267324448E-1,1.732318878E0
1.712040090E1,1.991006732E-1,5.429506302E-1,1.623231888E0
1.713070290E1,5.259940028E-1,5.671405792E-1,1.398165703E0
1.714034890E1,8.050945997E-1,5.458850861E-1,1.242791176E0
1.715080890E1,9.669129848E-1,4.717321396E-1,9.637498856E-1
1.716046390E1,1.027050138E0,3.088154793E-1,6.804466248E-1
1.717058690E1,9.798591137E-1,1.879572868E-1,5.454092026E-1
1.718031190E1,8.463737965E-1,9.804534912E-2,5.142555237E-1
1.719040290E1,7.243053913E-1,-7.791519165E-4,7.002754211E-1
1.720042490E1,6.763909459E-1,-1.573057175E-1,1.070546150E0
1.721054690E1,6.817662120E-1,-2.794179916E-1,1.349231720E0
1.722035690E1,6.910563111E-1,-4.299769402E-1,1.562181473E0
1.723034190E1,7.127627730E-1,-5.697946548E-1,1.702541351E0
1.724031990E1,7.297331095E-1,-6.733965874E-1,1.649640083E0
1.725030290E1,7.993071079E-1,-7.383897305E-1,1.432206154E0
1.726027290E1,8.764073849E-1,-7.410376072E-1,1.059820175E0
1.727047990E1,9.708827734E-1,-6.647830009E-1,5.798435211E-1
1.728027790E1,1.115590453E0,-5.657172203E-1,9.641742706E-2
1.729046690E1,1.338462949E0,-4.815011024E-1,-3.399457932E-1
1.730035990E1,1.515822768E0,-4.005026817E-1,-7.512435913E-1
1.731032190E1,1.646876454E0,-2.883958817E-1,-1.094940662E0
1.732026790E1,1.734748483E0,-1.498465538E-1,-1.293664932E0
1.733032490E1,1.799389601E0,-7.171630859E-2,-1.320676327E0
1.734039790E1,1.885348082E0,-2.875757217E-2,-1.181247711E0
1.735032790E1,1.946018219E0,-2.627754211E-2,-9.093627930E-1
1.736036790E1,1.958707333E0,-4.908275604E-2,-6.536259651E-1
1.737045990E1,1.871400833E0,-1.236295700E-1,-4.205942154E-1
1.738145690E1,1.672237873E0,-2.052545547E-1,-2.695484161E-1
1.739032890E1,1.401832819E0,-2.738366127E-1,-2.294168472E-1
1.740046390E1,1.123769283E0,-2.528500557E-1,-2.559661865E-1
1.741037690E1,8.538661599E-1,-2.149066925E-1,-3.587760925E-1
1.742029790E1,6.401544809E-1,-1.571583748E-1,-4.941630363E-1
1.743029390E1,5.282654762E-1,-1.044392586E-1,-6.811623573E-1
1.744030190E1,5.362975597E-1,-5.502891541E-2,-8.892288208E-1
1.745036790E1,6.182426214E-1,-1.137399673E-2,-1.016289711E0
1.746048490E1,7.107061744E-1,8.237504959E-2,-1.082787514E0
1.747044490E1,6.645750999E-1,1.044731140E-1,-1.052977562E0
1.748039990E1,6.116346717E-1,9.189796448E-2,-9.869413376E-1
1.749713690E1,4.751644135E-1,1.307868958E-2,-8.529005051E-1
1.751046990E1,3.070245683E-1,2.231884003E-2,-7.774939537E-1
1.752030790E1,2.178978920E-1,4.468202591E-2,-7.730536461E-1
1.753027190E1,1.689633131E-1,5.196428299E-2,-7.534728050E-1
1.754030690E1,1.601462960E-1,4.301071167E-2,-6.910443306E-1
1.755052590E1,1.453004777E-1,5.660295486E-2,-6.357750893E-1
1.756030090E1,1.913667023E-1,7.044601440E-2,-5.920872688E-1
1.757029290E1,1.958102435E-1,7.610177994E-2,-5.493655205E-1
1.758179690E1,1.633156240E-1,1.458582878E-1,-4.544200897E-1
1.759037490E1,1.662902534E-1,1.933293343E-1,-2.445564270E-1
1.760035290E1,1.954758912E-1,2.209520340E-1,9.311676025E-3
1.761046390E1,1.955438703E-1,2.583656311E-1,2.299995422E-1
1.762036790E1,1.697423160E-1,2.655949593E-1,4.393987656E-1
1.763030290E1,1.244409680E-1,2.877073288E-1,5.739355087E-1
1.764041290E1,1.257070005E-1,3.436083794E-1,5.566854477E-1
1.765030890E1,1.751543581E-1,4.045438766E-1,3.897275925E-1
1.766145690E1,2.659709752E-1,4.824767113E-1,7.818508148E-2
1.767038190E1,3.674916327E-1,5.534029007E-1,-3.107776642E-1
1.768030690E1,4.449476600E-1,6.443009377E-1,-6.689743996E-1
1.769030890E1,4.954067469E-1,7.173790932E-1,-8.914189339E-1
1.770035590E1,5.603876114E-1,7.878007889E-1,-9.636478424E-1
1.771029590E1,5.984656811E-1,8.634414673E-1,-9.483203888E-1
1.772031590E1,5.506389141E-1,8.848805428E-1,-8.350772858E-1
1.773027290E1,4.410216212E-1,8.999581337E-1,-6.403241158E-1
1.774045090E1,2.707581520E-1,9.119949341E-1,-3.782749176E-1
1.775043790E1,-6.697630882E-2,6.128416061E-1,6.216907501E-2
1.776035290E1,-2.123952806E-1,4.250311852E-1,3.959026337E-1
1.777049790E1,-2.389999926E-1,3.427124023E-1,6.338968277E-1
1.778062290E1,-2.996110618E-1,2.906703949E-1,8.383865356E-1
1.779092290E1,-3.564519882E-1,2.975211143E-1,1.143843651E0
1.780033390E1,-4.059361219E-1,3.324441910E-1,1.453672409E0
1.781088490E1,-4.643720686E-1,3.760356903E-1,1.730953693E0
1.782034490E1,-5.720769167E-1,4.076762199E-1,1.981329918E0
1.783118890E1,-6.781975627E-1,3.552503586E-1,2.183854580E0
1.784045290E1,-7.987259626E-1,3.592443466E-1,2.261222839E0
1.785029990E1,-9.374179244E-1,4.283504486E-1,2.181779861E0
1.786037390E1,-1.151052356E0,4.946241379E-1,1.983685970E0
1.787057290E1,-1.313288093E0,5.750284195E-1,1.632447243E0
1.788030190E1,-1.385390282E0,6.038427353E-1,1.265481472E0
1.789042590E1,-1.384729743E0,6.009612083E-1,1.049282074E0
1.790113290E1,-1.255146265E0,5.068464279E-1,8.645105362E-1
1.791054890E1,-1.050449729E0,2.542228699E-1,8.702349663E-1
1.792044690E1,-7.563078403E-1,9.399318695E-2,1.016493320E0
1.793162090E1,-4.065293074E-1,-1.698093414E-1,1.460483551E0
1.794039290E1,-1.930642128E-1,-5.616445541E-1,2.049240589E0
1.795140990E1,-1.181216761E-1,-9.730949402E-1,2.522621632E0
1.796047490E1,-2.994782329E-1,-1.349070549E0,2.860307693E0
1.797034990E1,-5.637418628E-1,-1.679471016E0,2.851977825E0
1.798040390E1,-9.128649235E-1,-1.917814970E0,2.603494167E0
1.799030690E1,-1.236219525E0,-2.057613134E0,2.248227119E0
1.800032790E1,-1.447924852E0,-2.080718756E0,1.928868294E0
1.801026490E1,-1.474099278E0,-2.096288681E0,1.556194305E0
1.802040390E1,-1.412979960E0,-2.110332251E0,1.164495468E0
1.803035590E1,-1.324786425E0,-2.077711582E0,7.180027962E-1
1.804032790E1,-1.160850286E0,-1.952551842E0,-5.390548706E-2
1.805030090E1,-1.083066940E0,-1.943677902E0,-4.955129623E-1
1.806063690E1,-1.043608189E0,-1.914341450E0,-8.589568138E-1
1.807030690E1,-1.058748722E0,-1.861328125E0,-1.177889347E0
1.808028790E1,-1.024384379E0,-1.818546772E0,-1.458149433E0
1.809031790E1,-1.049287677E0,-1.790499687E0,-1.631383896E0
1.810038990E1,-1.088730931E0,-1.735833645E0,-1.614822388E0
1.811039990E1,-1.124426842E0,-1.745503902E0,-1.397479534E0
1.812026490E1,-1.109181523E0,-1.855410099E0,-9.587402344E-1
1.813028690E1,-9.986415505E-1,-2.014098167E0,-3.239102364E-1
1.814030790E1,-8.724328279E-1,-2.145592213E0,2.608227730E-1
1.815035690E1,-8.270365000E-1,-2.215177298E0,6.656155586E-1
1.816032590E1,-9.587861896E-1,-2.270792961E0,9.302649498E-1
1.817025390E1,-1.200240612E0,-2.304419756E0,1.006577015E0
1.818116890E1,-1.430429935E0,-2.301454306E0,9.243664742E-1
1.819029790E1,-1.661939859E0,-2.288497448E0,7.226471901E-1
1.820075590E1,-1.808614612E0,-2.180040359E0,4.598565102E-1
1.821029690E1,-1.807095051E0,-2.053784370E0,2.477068901E-1
1.822028890E1,-1.624552131E0,-1.932257175E0,1.285586357E-1
1.823030190E1,-1.363484144E0,-1.796744823E0,8.512592316E-2
1.824034990E1,-1.081601143E0,-1.693315506E0,-3.709316254E-3
1.825030790E1,-9.144796133E-1,-1.597188950E0,-2.143120766E-1
1.826035690E1,-7.964432240E-1,-1.463415146E0,-5.269041061E-1
1.827033790E1,-7.611872554E-1,-1.317121983E0,-7.889747620E-1
1.828029990E1,-7.848587036E-1,-1.155621529E0,-1.026604652E0
1.829027190E1,-8.466057777E-1,-1.008950710E0,-1.177241802E0
1.830034890E1,-8.906431198E-1,-8.717327118E-1,-1.253299713E0
1.831321990E1,-9.197415113E-1,-7.238569260E-1,-1.310521603E0
1.833033990E1,-8.989650607E-1,-5.213961601E-1,-1.122193813E0
1.834031390E1,-8.929315805E-1,-3.913440704E-1,-9.052267075E-1
1.835045190E1,-8.762432933E-1,-2.858233452E-1,-5.765705109E-1
1.836033290E1,-8.546547890E-1,-1.917586327E-1,-2.181506157E-1
1.837034790E1,-7.869409323E-1,-1.604986191E-1,9.443759918E-2
1.838027890E1,-7.562971115E-1,-1.903877258E-1,3.768978119E-1
1.839036490E1,-7.673350573E-1,-1.084465981E-1,6.475443840E-1
1.840046290E1,-8.025466204E-1,-5.526065826E-2,8.531579971E-1
1.841050390E1,-8.601306677E-1,-2.674007416E-2,1.043098927E0
1.842028290E1,-5.710121393E-1,1.836304665E-1,1.017926216E0
1.843034090E1,-4.880672991E-1,3.536801338E-1,9.833145142E-1
1.844046690E1,-5.430324078E-1,4.271059036E-1,9.560699463E-1
1.845032990E1,-5.174195766E-1,5.343756676E-1,9.492893219E-1
1.846641590E1,-4.198663831E-1,6.564984322E-1,1.169119835E0
1.848047190E1,-4.897482097E-1,7.177901268E-1,1.363700867E0
1.849027190E1,-6.245596409E-1,7.854347229E-1,1.569303513E0
1.850069390E1,-7.418453097E-1,8.152704239E-1,1.833223343E0
1.851371890E1,-7.100329399E-1,7.974290848E-1,2.228331566E0
1.853030990E1,-6.106930375E-1,7.574963570E-1,2.336317062E0
1.854031890E1,-5.632790923E-1,8.863625526E-1,2.347450256E0
1.855033490E1,-5.205281973E-1,9.850678444E-1,2.452767372E0
1.856059590E1,-4.138390124E-1,9.757699966E-1,2.492216587E0
1.857043790E1,-3.114907742E-1,8.740434647E-1,2.120748043E0
1.858029490E1,-7.362830639E-2,3.346729279E-1,1.782515526E0
1.859037990E1,2.139581442E-1,-8.583831787E-2,1.450092793E0
1.860064190E1,4.943880737E-1,-4.491291046E-1,1.222690105E0
1.861035290E1,7.186033726E-1,-7.490611076E-1,1.362271309E0
1.862027490E1,8.171504140E-1,-1.078083992E0,1.710010529E0
1.863045190E1,7.757907510E-1,-1.436182022E0,2.081686020E0
1.864089290E1,5.547261238E-1,-1.725138187E0,2.420038223E0
1.865030590E1,2.666116059E-1,-2.053233862E0,2.537736893E0
1.866116590E1,-2.640806884E-2,-2.293396473E0,2.310639381E0
1.867028390E1,-3.629758954E-1,-2.391750336E0,1.837441444E0
1.868039390E1,-5.808330774E-1,-2.318998098E0,1.166955948E0
1.869032190E1,-6.479473114E-1,-2.193297386E0,4.663066864E-1
1.870066490E1,-5.563910007E-1,-2.142939329E0,-1.247525215E-1
1.871030090E1,-3.300945163E-1,-2.104560852E0,-6.882476807E-1
1.872036090E1,-9.441673756E-2,-2.033019781E0,-1.224123955E0
1.873033790E1,1.658517718E-1,-1.913634062E0,-1.640483856E0
1.874060890E1,4.347243905E-1,-1.826960087E0,-1.820130825E0
1.875028690E1,7.128146887E-1,-1.712593079E0,-1.752746105E0
1.876031190E1,9.137689471E-1,-1.638603210E0,-1.496142864E0
1.877032790E1,1.035532475E0,-1.670549870E0,-1.087603569E0
1.878030590E1,1.060330033E0,-1.732587814E0,-7.432479858E-1
1.879026090E1,9.456309080E-1,-1.782270432E0,-4.880523682E-1
1.880038390E1,7.423466444E-1,-1.773234844E0,-1.548199654E-1
1.881029490E1,5.207328200E-1,-1.780755997E0,2.563557625E-1
1.882036790E1,2.014747560E-1,-1.704469204E0,5.427002907E-1
1.883027690E1,-1.785867512E-1,-1.620182514E0,7.077221870E-1
1.884028090E1,-5.159156322E-1,-1.562339783E0,7.757678032E-1
1.885281190E1,-7.519550323E-1,-1.485700607E0,6.597604752E-1
1.887056090E1,-8.690637350E-1,-1.232031822E0,3.542709351E-2
1.888040090E1,-7.306061387E-1,-1.062759876E0,-3.421034813E-1
1.889032690E1,-5.307183862E-1,-8.732728958E-1,-6.947727203E-1
1.890045190E1,-3.334602118E-1,-7.124152184E-1,-1.013538837E0
1.891053490E1,-1.773011088E-1,-5.940589905E-1,-1.269112587E0
1.892043390E1,-6.281334162E-2,-5.164880753E-1,-1.482514381E0
1.893032090E1,4.134863615E-2,-4.595508575E-1,-1.580996513E0
1.894034290E1,1.158440709E-1,-3.663444519E-1,-1.553910255E0
1.895054690E1,1.807842553E-1,-2.476730347E-1,-1.369771004E0
1.896044890E1,2.726290822E-1,-1.319813728E-1,-1.084129333E0
1.897032690E1,3.918707371E-1,-1.369514465E-1,-7.834782600E-1
1.898033390E1,4.788706303E-1,-1.349859238E-1,-5.348324776E-1
1.899087390E1,5.162403584E-1,-8.017873764E-2,-3.503766060E-1
1.900033990E1,4.915501177E-1,-7.791996002E-3,-2.365999222E-1
1.901033590E1,4.190753102E-1,-5.228042603E-3,-1.372084618E-1
1.902040090E1,3.462152481E-1,2.753257751E-3,-5.286216736E-2
1.903049690E1,2.537215948E-1,1.386213303E-2,-4.495000839E-2
1.904029290E1,1.156579554E-1,-2.135848999E-2,1.033582687E-1
1.905035390E1,-4.920119047E-2,2.519130707E-3,2.865619659E-1
1.906033290E1,-1.500988305E-1,1.286983490E-2,5.334224701E-1
1.907030890E1,-2.482831180E-1,3.615665436E-2,8.492069244E-1
1.908076590E1,-3.408412933E-1,1.116218567E-1,1.212070465E0
1.909048890E1,-3.656425774E-1,1.703147888E-1,1.553355217E0
1.910038890E1,-3.196433783E-1,2.126793861E-1,1.862677574E0
1.911077990E1,-3.055173457E-1,2.703599930E-1,2.390073776E0
1.912033590E1,-3.242734075E-1,3.145785332E-1,2.428395271E0
1.913062090E1,-3.226478100E-1,3.850564957E-1,2.250166893E0
1.914026790E1,-3.366098404E-1,4.963111877E-1,1.958381653E0
1.915064090E1,-3.241396546E-1,5.403742790E-1,1.604390144E0
1.916030690E1,-3.619704247E-1,5.814666748E-1,1.368860245E0
1.917073390E1,-4.644236267E-1,6.880846024E-1,1.228175163E0
1.918027090E1,-4.715783894E-1,7.027263641E-1,1.123054981E0
1.919026590E1,-4.314551055E-1,6.558022499E-1,1.193787098E0
1.920061890E1,-3.424364626E-1,4.789724350E-1,1.324476242E0
1.921029790E1,-2.002052069E-1,1.077251434E-1,1.664444447E0
1.922028890E1,-9.376931190E-2,-3.214802742E-1,2.076108456E0
1.923036190E1,-1.870613396E-1,-7.197327614E-1,2.361519337E0
1.924034590E1,-3.887481689E-1,-1.046704769E0,2.554818153E0
1.925028890E1,-6.814316511E-1,-1.383153439E0,2.596776962E0
1.926022990E1,-9.998908639E-1,-1.701179028E0,2.476119041E0
1.927044690E1,-1.396837234E0,-1.854554415E0,2.257375717E0
1.928032390E1,-1.752637982E0,-1.930455446E0,1.941928864E0
1.929032090E1,-1.941275120E0,-2.019715309E0,1.663238525E0
1.930031290E1,-1.956315637E0,-2.049769878E0,1.326952934E0
1.931033890E1,-1.805414557E0,-2.027880192E0,9.385986328E-1
1.932028090E1,-1.577768803E0,-1.987031937E0,6.031618118E-1
1.933029890E1,-1.339710712E0,-1.917951107E0,2.347011566E-1
1.934037290E1,-1.110303164E0,-1.844717026E0,-8.178329468E-2
1.935035990E1,-8.233618736E-1,-1.797450066E0,-4.062175751E-1
1.936213490E1,-5.103605390E-1,-1.788643837E0,-6.081757545E-1
1.937164090E1,-1.961977631E-1,-1.769910812E0,-6.300549507E-1
1.938062590E1,7.775478065E-2,-1.778810024E0,-4.985828400E-1
1.939036790E1,2.559440732E-1,-1.835521460E0,-3.001241684E-1
1.940037490E1,2.711255848E-1,-1.903763056E0,-1.350059509E-1
1.941069390E1,9.907609969E-2,-1.978137493E0,-5.616998672E-2
1.942033990E1,-1.986985803E-1,-2.022237301E0,-1.143889427E-1
1.943037990E1,-5.044587851E-1,-2.027424335E0,-3.161501884E-1
1.944033690E1,-7.330178618E-1,-1.992356300E0,-5.541396141E-1
1.945074990E1,-8.985071778E-1,-1.897139788E0,-7.822079659E-1
1.946031590E1,-1.008811474E0,-1.799938202E0,-1.009116173E0
1.947087490E1,-1.068556070E0,-1.750525475E0,-1.162233353E0
1.948033590E1,-1.022126436E0,-1.655423641E0,-1.270040512E0
1.949054990E1,-8.938629031E-1,-1.537559032E0,-1.335636616E0
1.950032390E1,-6.782333255E-1,-1.464653492E0,-1.342586994E0
1.951039790E1,-5.046580434E-1,-1.393339634E0,-1.286272526E0
1.952035690E1,-4.359774888E-1,-1.237925529E0,-1.195920944E0
1.953041190E1,-4.136624336E-1,-1.114628792E0,-1.082603455E0
1.954030890E1,-4.430243969E-1,-1.058124542E0,-9.978361130E-1
1.955031090E1,-5.380716920E-1,-9.567160606E-1,-9.182820320E-1
1.956339790E1,-7.470914721E-1,-8.332738876E-1,-7.791929245E-1
1.958032590E1,-8.192113042E-1,-7.533535957E-1,-7.255105972E-1
1.959027690E1,-8.196302652E-1,-6.551647186E-1,-6.842989922E-1
1.960057990E1,-7.681612372E-1,-5.946307182E-1,-6.438302994E-1
1.961068090E1,-6.387044787E-1,-5.474200249E-1,-5.956325531E-1
1.962030290E1,-5.673270822E-1,-4.459280968E-1,-4.790768623E-1
1.963034190E1,-5.319659114E-1,-3.153223991E-1,-3.645277023E-1
1.964035990E1,-4.695656598E-1,-2.902436256E-1,-2.010769844E-1
1.965071190E1,-6.958079934E-1,-2.212452888E-1,3.032188416E-1
1.966030990E1,-8.465603590E-1,-1.269006729E-1,6.102762222E-1
1.967046790E1,-9.619601369E-1,-2.017116547E-2,8.983802795E-1
1.968034090E1,-9.917666316E-1,1.086444855E-1,1.142017365E0
1.969042190E1,-9.173774719E-1,1.858940125E-1,1.330060959E0
1.970085290E1,-7.991305590E-1,2.139430046E-1,1.584903717E0
1.971032790E1,-6.555858850E-1,2.889237404E-1,1.885426521E0
1.972030290E1,-5.228044987E-1,3.117341995E-1,2.075803757E0
1.973052590E1,-4.744663835E-1,2.770762444E-1,2.167927742E0
1.974045690E1,-4.974151850E-1,3.010177612E-1,2.203372002E0
1.975032290E1,-6.003959775E-1,3.881030083E-1,2.068572998E0
1.976033590E1,-6.817562580E-1,5.304169655E-1,1.942815781E0
1.977051890E1,-6.373491287E-1,6.473546028E-1,1.792091370E0
1.978079490E1,-4.311158657E-1,6.866884232E-1,1.689164162E0
1.979031490E1,-6.010909379E-2,6.748094559E-1,1.463242531E0
1.980042090E1,3.684082329E-1,7.576198578E-1,1.307962418E0
1.981029490E1,8.535362482E-1,8.390874863E-1,1.380688667E0
1.982031390E1,1.374856353E0,6.048254967E-1,1.701761246E0
1.983052890E1,1.801746845E0,2.084746361E-1,2.234527588E0
1.984039490E1,1.919084311E0,-2.617897987E-1,2.554448128E0
1.985028490E1,1.844677806E0,-7.659988403E-1,2.829156876E0
1.986034590E1,1.426429391E0,-1.067138195E0,2.967977524E0
1.987053490E1,8.107941747E-1,-1.295214176E0,2.882599831E0
1.988073690E1,1.520702392E-1,-1.503157616E0,2.623606682E0
1.989050490E1,-3.829036355E-1,-1.553896666E0,2.282130241E0
1.990035290E1,-7.479189634E-1,-1.466736317E0,1.860735893E0
1.991035090E1,-9.476325512E-1,-1.451912642E0,1.443194389E0
1.992036090E1,-9.592803121E-1,-1.363651037E0,9.712800980E-1
1.993028990E1,-7.900488377E-1,-1.222450256E0,4.591073990E-1
1.994036390E1,-3.787626028E-1,-1.199138641E0,-3.992462158E-2
1.995049390E1,1.224932969E-1,-1.235688210E0,-4.139885902E-1
1.996033490E1,6.629338861E-1,-1.280040264E0,-3.827252388E-1
1.997036890E1,1.202948689E0,-1.337001801E0,-2.344031334E-1
1.998037690E1,1.592347503E0,-1.375648499E0,-1.221499443E-1
1.999032290E1,1.800205946E0,-1.352039814E0,7.164955139E-2
2.000030490E1,1.778075695E0,-1.379775524E0,2.140417099E-1
2.001032690E1,1.572659254E0,-1.461269140E0,3.425426483E-1
2.002036390E1,1.188853979E0,-1.548561573E0,3.610324860E-1
2.003030790E1,6.831918955E-1,-1.602230072E0,1.447172165E-1
2.004033790E1,1.856670082E-1,-1.567408323E0,-2.226462364E-1
2.005032290E1,-2.453950942E-1,-1.488312006E0,-5.787577629E-1
2.006030890E1,-5.249104500E-1,-1.448493004E0,-8.640403748E-1
2.007038890E1,-6.654726267E-1,-1.393743753E0,-1.152309895E0
2.008041890E1,-6.912909746E-1,-1.327847481E0,-1.451800823E0
2.009025690E1,-6.517536640E-1,-1.249169827E0,-1.735956669E0
2.010063590E1,-5.594493151E-1,-1.124971390E0,-1.932410240E0
2.011034090E1,-4.437350035E-1,-9.903402328E-1,-2.021122932E0
2.012033890E1,-3.407843113E-1,-8.668217659E-1,-2.005541801E0
2.013059590E1,-3.396020532E-1,-7.825875282E-1,-1.917380333E0
2.014295290E1,-4.081238508E-1,-5.839581490E-1,-1.520725250E0
2.015300890E1,-3.462335467E-1,-5.758566856E-1,-1.191747189E0
2.016224890E1,-2.439242005E-1,-5.587310791E-1,-8.679623604E-1
2.017035990E1,-2.403339744E-1,-5.481305122E-1,-8.746943474E-1
2.018202490E1,-1.526567936E-1,-4.051113129E-1,-3.759422302E-1
2.019050690E1,-9.293586016E-2,-3.785781860E-1,-2.176222801E-1
2.020039490E1,-2.815341949E-2,-3.008894920E-1,-8.838939667E-2
2.021037290E1,5.142408609E-2,-2.079505920E-1,1.550197601E-2
2.022079190E1,1.463128328E-1,-1.886830330E-1,1.206445694E-1
2.023035990E1,1.551932395E-1,-1.354126930E-1,3.441314697E-1
2.024033390E1,1.461536884E-1,-2.130222321E-2,6.095161438E-1
2.025036190E1,2.126842439E-1,1.097583771E-2,8.595867157E-1
2.026061290E1,2.935949862E-1,1.841974258E-2,1.099967957E0
2.027022490E1,3.187104166E-1,1.023073196E-1,1.163647652E0
2.028029590E1,2.587677240E-1,2.541108131E-1,1.052341461E0
2.029033490E1,3.011290431E-1,3.289160728E-1,9.354953766E-1
2.030035390E1,4.716530740E-1,3.513932228E-1,8.767576218E-1
2.031085190E1,7.190467119E-1,3.737902641E-1,9.372444153E-1
2.032028390E1,8.899050355E-1,4.340624809E-1,1.125133514E0
2.033045390E1,1.030813694E0,4.287252426E-1,1.471689224E0
2.034038290E1,1.145484686E0,3.839530945E-1,1.643190384E0
2.035027290E1,1.152867436E0,3.500280380E-1,1.605848312E0
2.036056990E1,8.938742876E-1,4.771280289E-1,1.301285744E0
2.037037190E1,3.835019171E-1,7.281680107E-1,8.358850479E-1
2.038110790E1,-1.994606256E-1,1.007546902E0,4.112062454E-1
2.039030090E1,-5.272160769E-1,1.242606163E0,3.328990936E-1
2.040058490E1,-5.252843499E-1,1.277527332E0,7.400445938E-1
2.041030990E1,-1.116383672E-1,1.178313732E0,1.421159744E0
2.042031590E1,4.992669225E-1,7.082715034E-1,2.276922226E0
2.043033990E1,1.043913245E0,2.520356178E-1,3.089577675E0
2.044023790E1,1.407978296E0,-2.485814095E-1,3.835371017E0
2.045026890E1,1.517207384E0,-8.387446404E-1,3.727078438E0
2.046032390E1,1.253689408E0,-1.280711889E0,3.534600258E0
2.047029490E1,8.571329117E-1,-1.560881138E0,3.105813980E0
2.048038890E1,2.938527465E-1,-1.666893005E0,2.595941544E0
2.049032790E1,-2.550356984E-1,-1.703068256E0,2.158502579E0
2.050038590E1,-6.509032845E-1,-1.712911129E0,1.651112556E0
2.051030090E1,-8.062473536E-1,-1.642701626E0,1.149708748E0
2.052028590E1,-8.567446470E-1,-1.533446550E0,7.134666443E-1
