"Time (s)","Linear Acceleration x (m/s^2)","Linear Acceleration y (m/s^2)","Linear Acceleration z (m/s^2)"
6.991256200E-2,0.000000000E0,0.000000000E0,0.000000000E0
7.501256200E-2,5.848079920E-2,-1.141843796E-1,-1.088104248E-1
8.011256200E-2,3.529226780E-2,-1.963930130E-1,-1.988515854E-1
8.521256200E-2,-1.092301607E-1,-3.040804863E-1,-3.170423508E-1
9.029943700E-2,-3.296477795E-1,-3.146739006E-1,-5.217337608E-1
9.537949000E-2,-6.257770658E-1,-2.051382065E-1,-8.427453041E-1
1.004595940E-1,-7.767159343E-1,-4.067468643E-2,-9.126477242E-1
1.055396460E-1,-8.166109324E-1,1.420192719E-1,-6.869778633E-1
1.105593850E-1,-7.437434196E-1,3.116903305E-1,-4.326577187E-1
1.156271460E-1,-5.516113043E-1,4.784212112E-1,-2.649979591E-1
1.206949060E-1,-3.528451920E-1,6.433963776E-1,-1.753516197E-1
1.257626150E-1,-3.043668270E-1,7.245144844E-1,-9.375000000E-2
1.308182920E-1,-3.063540459E-1,7.855033875E-1,-9.326553345E-2
1.358836040E-1,-3.420705795E-1,8.592252731E-1,-1.771574020E-1
1.409488650E-1,-3.285176754E-1,8.820934296E-1,-1.616926193E-1
1.460141770E-1,-1.968581676E-1,8.615007401E-1,-5.289363861E-2
1.510770420E-1,6.409019232E-1,7.000651360E-1,1.807527542E-1
1.561418330E-1,7.371426821E-1,3.093876839E-1,5.744380951E-1
1.612066250E-1,-5.759113431E-1,-8.257794380E-2,9.361886978E-1
1.662714690E-1,-1.523269534E0,-5.184075832E-1,1.265334129E0
1.711816770E-1,-1.544847131E0,-6.583173275E-1,1.247493744E0
1.762150100E-1,-1.129494309E0,-5.861926079E-1,1.065901756E0
1.812482920E-1,-7.648627758E-1,-5.889601707E-1,9.017000198E-1
1.862815730E-1,-6.080923080E-1,-6.236722469E-1,9.735193253E-1
1.913815730E-1,-5.233733654E-1,-6.982266903E-1,1.073966026E0
1.964815730E-1,-4.332014322E-1,-8.215696812E-1,1.041364670E0
2.015815730E-1,-2.390892506E-1,-8.580021858E-1,9.125823975E-1
2.066815730E-1,-4.960966110E-2,-8.519697189E-1,7.320089340E-1
2.117815730E-1,1.078680754E-1,-7.859096527E-1,5.005455017E-1
2.168815730E-1,3.082659245E-1,-6.615064144E-1,2.560615540E-1
2.219815730E-1,4.808911681E-1,-5.399429798E-1,8.145427704E-2
2.270750620E-1,5.066043735E-1,-4.854590893E-1,-1.605272293E-1
2.319800620E-1,4.690992236E-1,-5.570397377E-1,-4.866828918E-1
2.369926670E-1,2.877829075E-1,-6.087083817E-1,-8.494195938E-1
2.420278230E-1,9.616017342E-3,-5.625936985E-1,-1.159564972E0
2.470630310E-1,-3.058986664E-1,-4.583489895E-1,-1.293203831E0
2.521630310E-1,-6.049183607E-1,-2.688059807E-1,-1.301669598E0
2.572630310E-1,-7.244580984E-1,-2.063133717E-1,-1.085254669E0
2.623305830E-1,-4.319108725E-1,-6.641548872E-1,-4.206666946E-1
2.673893330E-1,-4.825794697E-2,-1.175863028E0,3.683738708E-1
2.724893330E-1,3.045905828E-1,-1.640863299E0,6.669225693E-1
2.775893330E-1,6.027195454E-1,-1.742396593E0,5.333919525E-1
2.826893330E-1,1.081770778E0,-1.428657651E0,5.998859406E-1
2.877893330E-1,1.263191342E0,-1.332351565E0,7.166757584E-1
2.928864170E-1,1.192958474E0,-1.524037361E0,5.686178207E-1
2.979657920E-1,1.113135457E0,-1.567574143E0,2.454032898E-1
3.030451670E-1,9.658607841E-1,-1.470973611E0,-8.588218689E-2
3.081245940E-1,7.795659304E-1,-1.354422569E0,-2.005386353E-1
3.131463120E-1,6.101765633E-1,-1.270365357E0,-2.017269135E-1
3.182139170E-1,4.885127544E-1,-1.226692319E0,-2.282724380E-1
3.232815210E-1,4.298553467E-1,-1.260802150E0,-1.908283234E-1
3.283490730E-1,3.275427818E-1,-1.272832036E0,-6.737422943E-2
3.334051670E-1,1.625200510E-1,-1.080258369E0,-4.263114929E-2
3.384704270E-1,6.674540043E-2,-5.136324763E-1,-4.870986938E-2
3.435356870E-1,-1.777392626E-1,6.626033783E-2,-1.926565170E-1
3.486009480E-1,-5.834820271E-1,4.565887451E-1,-4.240274429E-1
3.535098540E-1,-1.118501902E0,5.941534042E-1,-6.689920425E-1
3.585431870E-1,-1.974231601E0,3.763525486E-1,-7.388725281E-1
3.635765730E-1,-2.514679909E0,2.138161659E-1,-7.386789322E-1
3.686099580E-1,-2.209113121E0,-1.156864166E-1,-9.184885025E-1
3.737099580E-1,-1.366542220E0,-6.758319139E-1,-9.599370956E-1
3.788099580E-1,-3.936189413E-1,-1.298126698E0,-4.794082642E-1
3.838820420E-1,5.421588421E-1,-1.872409582E0,2.785739899E-1
3.889404790E-1,1.183962345E0,-2.233844757E0,1.087411880E0
3.940404790E-1,1.371288419E0,-2.154961824E0,1.747550011E0
3.991404790E-1,1.070858002E0,-1.543796182E0,2.293804169E0
4.042404790E-1,4.009100199E-1,-6.268026829E-1,2.402745247E0
4.093176670E-1,-3.424950838E-1,2.734096050E-1,1.921230316E0
4.144176670E-1,-8.042774796E-1,7.826451063E-1,1.363501549E0
4.195176670E-1,-9.751899838E-1,9.622077942E-1,8.680438995E-1
4.245970940E-1,-1.065231085E0,9.159008265E-1,3.256034851E-1
4.296764170E-1,-1.117476702E0,7.277356386E-1,-1.640262604E-1
4.346983960E-1,-1.142352343E0,5.247228146E-1,-1.627416611E-1
4.397659480E-1,-1.110900164E0,3.019784689E-1,1.951837540E-1
4.448335520E-1,-1.139382124E0,1.469943523E-1,6.065855026E-1
4.499011040E-1,-1.462486029E0,8.676052094E-3,7.674703598E-1
4.549571460E-1,-2.168432236E0,-1.817967892E-1,5.431880951E-1
4.600241250E-1,-2.895114183E0,-3.792563677E-1,1.415596008E-1
4.650911560E-1,-3.318578720E0,-5.386685133E-1,-2.367439270E-1
4.701581350E-1,-3.450291872E0,-5.500963926E-1,-5.210733414E-1
4.750585000E-1,-3.626433611E0,-5.147638321E-1,-1.975668430E0
4.801171980E-1,-3.843283892E0,-3.571660519E-1,-4.222905159E0
4.851758960E-1,-4.088764191E0,-2.677097321E-1,-3.734285355E0
4.902345420E-1,-4.222705364E0,-1.225965023E-1,-4.016855240E0
4.953345420E-1,-4.112133503E0,4.383134842E-2,-3.855401039E0
5.004345420E-1,-3.980867386E0,4.027371407E-1,-2.904037476E0
5.055345420E-1,-3.634768724E0,7.431290150E-1,-2.088522434E0
5.106345420E-1,-3.023549318E0,8.853349686E-1,-1.604403973E0
5.157333960E-1,-2.286567926E0,8.609535694E-1,-1.176425457E0
5.207972500E-1,-1.614926100E0,7.962069511E-1,-7.737960815E-1
5.258611040E-1,-1.097266555E0,7.040882111E-1,-3.759593964E-1
5.309249580E-1,-6.994265914E-1,6.865199804E-1,1.181430817E-1
5.359920940E-1,-4.402556717E-1,7.107892036E-1,7.468414307E-1
5.410561040E-1,-1.869797111E-1,8.329238892E-1,1.278069496E0
5.461201670E-1,7.173293829E-2,9.903621674E-1,1.567193985E0
5.511841770E-1,2.684544623E-1,1.127126575E0,1.598389626E0
5.560935520E-1,3.456507325E-1,1.100480795E0,1.620658875E0
5.611498020E-1,3.666188121E-1,8.469628096E-1,1.736782074E0
5.662061040E-1,3.164001703E-1,3.836685419E-1,1.859772682E0
5.712624060E-1,3.491303921E-1,-7.947528362E-2,2.078701019E0
5.763519900E-1,3.071904182E-1,-5.334668756E-1,2.192818642E0
5.814099580E-1,1.221584082E-1,-8.752445579E-1,2.178673744E0
5.864679790E-1,-1.466728449E-1,-1.138329625E0,2.069895744E0
5.915259480E-1,-4.324467778E-1,-1.346615195E0,1.985477448E0
5.966104270E-1,-8.534696102E-1,-1.268213868E0,2.072504044E0
6.016697500E-1,-1.444448709E0,-8.869410753E-1,2.325465202E0
6.067290730E-1,-2.124951839E0,-3.287233710E-1,2.620309830E0
6.117883960E-1,-2.493123531E0,1.634699106E-1,2.672933578E0
6.168883960E-1,-2.283720493E0,2.599807978E-1,2.268146515E0
6.219883960E-1,-2.001192093E0,1.869888306E-1,1.433658600E0
6.270883960E-1,-1.934865475E0,8.339524269E-2,6.562805176E-1
6.321883960E-1,-1.981834412E0,6.737053394E-2,-3.251266479E-2
6.372854270E-1,-2.069296598E0,4.209669828E-1,-7.248506546E-1
6.423497500E-1,-2.144127369E0,9.302073717E-1,-1.260625839E0
6.474141250E-1,-2.037557602E0,1.211663127E0,-1.480792999E0
6.524785000E-1,-1.893144488E0,1.311776996E0,-1.540538311E0
6.575440210E-1,-1.907349944E0,1.304772258E0,-1.503156185E0
6.626084480E-1,-1.849782228E0,1.344005346E0,-1.473632336E0
6.676728750E-1,-1.692828894E0,1.333429575E0,-1.341944695E0
6.727372500E-1,-1.621338844E0,1.200941324E0,-1.155720711E0
6.776454790E-1,-1.544884324E0,1.054733276E0,-1.043179512E0
6.827020940E-1,-1.226737738E0,1.018777847E0,-8.848648071E-1
6.877587080E-1,-9.445353746E-1,8.949884176E-1,-5.286283493E-1
6.928153230E-1,-6.999102235E-1,7.859821320E-1,-2.273654938E-2
6.979039170E-1,-5.170627832E-1,8.225491047E-1,5.182170868E-1
7.029621460E-1,-5.091934204E-1,7.866832018E-1,9.900159836E-1
7.080203750E-1,-6.281661987E-1,5.671160221E-1,1.289300919E0
7.130786040E-1,-7.315162420E-1,3.813897371E-1,1.527303696E0
7.181786040E-1,-8.777129650E-1,2.885719538E-1,1.814447403E0
7.232786040E-1,-1.352174520E0,2.428842783E-1,2.008397102E0
7.283786040E-1,-1.874114990E0,-4.068493843E-3,2.058314323E0
7.334786040E-1,-1.982846022E0,-3.942340612E-1,1.965797424E0
7.385786040E-1,-1.845034599E0,-3.513498306E-1,1.636714935E0
7.436422500E-1,-1.890803814E0,8.500730991E-2,1.194627762E0
7.487057400E-1,-2.129403114E0,4.439584017E-1,8.995876312E-1
7.537692290E-1,-2.255902052E0,5.533069372E-1,6.300706863E-1
7.588374580E-1,-2.314772606E0,6.125013828E-1,2.333040237E-1
7.639012080E-1,-2.222193718E0,5.666450262E-1,-4.563961029E-1
7.689649060E-1,-2.223101616E0,3.403978348E-1,-8.771543503E-1
7.740286040E-1,-2.299899817E0,1.244291067E-1,-8.464336395E-1
7.789388650E-1,-2.337382555E0,-6.723105907E-2,-9.336309433E-1
7.839949580E-1,-2.306707621E0,-2.535558939E-1,-1.093373299E0
7.890510000E-1,-2.138200045E0,-4.354418516E-1,-1.148772240E0
7.941070420E-1,-1.523937225E0,-6.666504145E-1,-1.122575760E0
7.991972500E-1,-5.000238419E-1,-6.529335976E-1,-6.617927551E-1
8.042550620E-1,-3.770890236E-1,-4.586634636E-1,1.996831894E-1
8.093128230E-1,-8.790558577E-1,3.363175392E-1,4.653110504E-1
8.143706350E-1,-9.376686811E-1,1.290512919E0,-6.928882599E-1
8.194706350E-1,-1.556964874E0,1.814239264E0,-2.155934811E0
8.245706350E-1,-2.700582027E0,2.162106037E0,-2.422644615E0
8.296706350E-1,-3.223676682E0,2.224832058E0,-1.538125515E0
8.347706350E-1,-3.347716570E0,6.615464687E-1,-9.437947273E-1
8.398706350E-1,-2.714032650E0,-1.360424399E0,-6.098427773E-1
8.449352190E-1,-1.710117102E0,-2.108832121E0,-2.068290710E-1
8.499983440E-1,-1.105895042E0,-1.782721519E0,1.897315979E-1
8.550614690E-1,-1.053219318E0,-1.091593981E0,2.526044846E-1
8.601306870E-1,-1.281261921E0,-5.015405416E-1,-2.452664375E-1
8.651941250E-1,-1.307078362E0,-2.809780836E-1,-1.422887325E0
8.702575620E-1,-8.558859825E-1,-5.533591509E-1,-2.661509514E0
8.753210000E-1,3.709845543E-1,-1.355059505E0,-3.606731415E0
8.802321980E-1,1.721681118E0,-1.433345318E0,-4.093963146E0
8.852879790E-1,2.625318527E0,-7.939428091E-1,-4.588074684E0
8.903438120E-1,3.265579700E0,-1.814693213E-1,-5.000878334E0
8.953996980E-1,3.747239590E0,5.007817745E-1,-4.598086357E0
9.004905830E-1,4.274214268E0,1.311269999E0,-4.102511406E0
9.055481870E-1,4.842826843E0,1.854699731E0,-4.549483299E0
9.106057920E-1,5.312369823E0,6.890733242E-1,-5.989455223E0
9.156633960E-1,5.793258667E0,-1.333395481E0,-3.652853966E0
9.207490210E-1,5.611938953E0,-1.687998295E0,-1.433787346E0
9.258080310E-1,4.018227100E0,-8.889970779E-1,-7.567157745E-1
9.308670420E-1,2.896428108E0,-9.833455086E-3,-3.045330048E-1
9.359261040E-1,2.391633987E0,3.733890057E-1,6.085720062E-1
9.410261040E-1,2.061918259E0,1.742874384E-1,1.261003494E0
9.461261040E-1,1.740930557E0,-2.095963955E-1,1.538984299E0
9.512261040E-1,1.255715847E0,-3.343158066E-1,1.722650051E0
9.563261040E-1,9.493017197E-1,-5.906863809E-1,1.908863544E0
9.614238650E-1,6.878342628E-1,-8.536844850E-1,1.826354504E0
9.664879790E-1,6.363506317E-1,-1.042488337E0,1.630794525E0
9.715520420E-1,9.726076126E-1,-9.092633724E-1,1.282147884E0
9.766162080E-1,1.450659752E0,-6.023927927E-1,8.009433746E-1
9.815253230E-1,1.843846321E0,-3.328286409E-1,2.360296249E-1
9.865816770E-1,2.096915722E0,1.182916462E-1,-3.278946877E-1
9.916380830E-1,2.323090553E0,7.412263155E-1,-8.473763466E-1
9.966944370E-1,2.488162041E0,1.255803466E0,-1.302912235E0
1.001794437E0,2.481730938E0,1.573482990E0,-1.731781960E0
1.006894437E0,2.452859879E0,1.699962735E0,-2.092257977E0
1.011994437E0,2.377722740E0,1.645357370E0,-2.303848982E0
1.017094437E0,2.208681107E0,1.490788102E0,-2.400585890E0
1.022194437E0,1.955012321E0,1.183521986E0,-2.453646421E0
1.027262042E0,1.555438995E0,6.939018965E-1,-2.492419958E0
1.032324073E0,1.244315147E0,1.741348654E-1,-2.469999075E0
1.037386052E0,1.007106781E0,-2.912814319E-1,-2.306504488E0
1.042458656E0,8.864688873E-1,-7.798489332E-1,-2.117753267E0
1.047521208E0,7.962284088E-1,-1.255504966E0,-1.900050402E0
1.052583760E0,7.979831696E-1,-1.453575373E0,-1.568235874E0
1.057646260E0,8.900918961E-1,-1.781801820E0,-1.254995346E0
1.062717250E0,9.989356995E-1,-2.145558596E0,-9.436683655E-1
1.067780219E0,1.155731201E0,-2.221306086E0,-7.217049599E-1
1.072843187E0,1.483239174E0,-1.911381006E0,-7.296986580E-1
1.077906156E0,1.877891541E0,-1.532942772E0,-8.590764999E-1
1.082818708E0,2.341350555E0,-1.210985899E0,-6.115546227E-1
1.087874125E0,3.243144989E0,-8.331797123E-1,-2.481646538E-1
1.092929594E0,3.973837852E0,2.390336990E-2,-7.749938965E-2
1.097985062E0,4.210361481E0,6.947122812E-1,3.896760941E-2
1.103077094E0,4.255172729E0,8.195111156E-1,1.496057510E-1
1.108134385E0,4.132369995E0,7.900151014E-1,1.168584824E-1
1.113191677E0,3.818819046E0,7.256336212E-1,-1.634898186E-1
1.118248969E0,3.482844353E0,5.883333087E-1,-4.294643402E-1
1.123335531E0,2.809030533E0,6.209731698E-1,-1.079911709E0
1.128394333E0,1.834059715E0,9.579089284E-1,-1.744080782E0
1.133453083E0,8.696737289E-1,1.066491723E0,-2.145916224E0
1.138511833E0,1.611671448E-1,9.057738781E-1,-2.258160830E0
1.143611833E0,-6.586046219E-1,8.107442856E-1,-2.275485516E0
1.148711833E0,-1.601841450E0,6.268522143E-1,-2.224826574E0
1.153811833E0,-2.217558384E0,5.091425776E-1,-2.115366220E0
1.158911833E0,-2.756247520E0,4.670221210E-1,-1.863271475E0
1.164010375E0,-3.509877205E0,3.671171665E-1,-1.446801901E0
1.169074281E0,-4.066737175E0,4.291038513E-1,-1.404649973E0
1.174138240E0,-4.609861374E0,5.098712444E-1,-1.363293886E0
1.179202146E0,-5.988281727E0,2.203092575E0,-1.190342665E0
1.184269021E0,-6.041066647E0,2.638262749E0,-1.092487335E0
1.189333083E0,-5.252232075E0,1.572948456E0,-1.592440367E0
1.194397146E0,-4.583627701E0,7.669630647E-1,-1.920624614E0
1.199461260E0,-3.917725563E0,3.649444580E-1,-1.879640102E0
1.204370427E0,-3.290305138E0,1.745496988E-1,-1.757561445E0
1.209426781E0,-2.598947048E0,5.238521099E-2,-1.429710269E0
1.214483083E0,-1.715137005E0,-1.112878323E-1,-1.028591037E0
1.219539437E0,-7.735414505E-1,-3.507969379E-1,-7.113910913E-1
1.224628865E0,3.026294708E-2,-7.568097115E-1,-4.448831081E-1
1.229686885E0,6.825790405E-1,-1.256443977E0,-2.191522121E-1
1.234744906E0,1.365032196E0,-1.836530447E0,-1.251554489E-2
1.239802875E0,1.934307098E0,-2.404092312E0,1.602271795E-1
1.244902875E0,2.313859940E0,-2.884644985E0,3.159259558E-1
1.250002875E0,2.521128654E0,-3.154658556E0,4.644268751E-1
1.255102875E0,2.630697250E0,-3.232041597E0,5.949821472E-1
1.260202875E0,2.750102043E0,-3.157452345E0,7.808628082E-1
1.265302875E0,4.259368896E0,-3.243280888E0,1.282032013E0
1.270366937E0,8.335425377E0,-3.806672096E0,2.462507248E0
1.275430271E0,8.285889626E0,-2.667330265E0,2.577709675E0
1.280493552E0,6.277181625E0,-7.070190907E-1,2.024594307E0
1.285562250E0,3.828205109E0,3.514187336E-1,1.199259400E0
1.290625844E0,1.495557785E0,5.759356022E-1,4.077234268E-1
1.295689385E0,5.766201019E-1,6.311948299E-1,-7.607471943E-2
1.300752979E0,5.484733582E-1,4.821927547E-1,-2.704957128E-1
1.305663656E0,1.443614960E-1,1.434092522E-1,-5.450274944E-1
1.310719594E0,-8.286495209E-1,3.918974400E-1,-4.530042112E-1
1.315775531E0,-2.496023655E0,1.169918299E0,-2.041026950E-1
1.320831469E0,-3.279113770E0,1.359036684E0,-5.614579916E-1
1.325922094E0,-3.142387390E0,1.068886995E0,-9.537293911E-1
1.330979802E0,-2.525209904E0,1.592388153E-1,-1.662694216E0
1.336037458E0,-4.828214645E-1,-2.569900513E0,-3.757100582E0
1.341095115E0,1.638371468E0,-4.207159042E0,-4.626769543E0
1.346195115E0,1.773485184E0,-2.387951851E0,-3.177198887E0
1.351295115E0,1.451256752E0,-2.977323532E-2,-1.319105744E0
1.356395115E0,1.309529305E0,7.990779877E-1,-9.128350019E-2
1.361495115E0,6.186075211E-1,1.183444500E0,6.441355348E-1
1.366595115E0,3.537921906E-1,8.387622833E-1,1.311877370E0
1.371659906E0,-2.538957596E-1,4.790101051E-1,1.809026599E0
1.376722927E0,-1.411308765E0,4.974174500E-1,2.246438026E0
1.381785948E0,-2.670430183E0,6.618866920E-1,2.383091211E0
1.386855427E0,-3.794620037E0,7.700233459E-1,1.888890862E0
1.391918812E0,-4.110092163E0,2.704153061E-1,9.817013144E-1
1.396982198E0,-3.591129303E0,-5.299434662E-1,3.130125105E-1
1.402045531E0,-3.382079601E0,-1.021529198E0,-7.305003703E-2
1.406956885E0,-3.341735840E0,-1.176602364E0,-2.845079899E-1
1.412012615E0,-3.230736732E0,-9.758167267E-1,-5.288141966E-1
1.417068396E0,-2.846831799E0,-7.964701653E-1,-8.190802932E-1
1.422124229E0,-2.262854576E0,-7.727398872E-1,-1.220147848E0
1.427215219E0,-1.598976135E0,-8.521008492E-1,-1.442390561E0
1.432272771E0,-1.034564972E0,-8.798589706E-1,-1.569907308E0
1.437330375E0,-2.635788918E-1,-8.415832520E-1,-2.045337439E0
1.442387927E0,9.077677727E-1,-9.008417130E-1,-2.821447849E0
1.447473656E0,2.142417431E0,-9.395184517E-1,-3.663796425E0
1.452532667E0,3.122200966E0,-7.982106209E-1,-4.542578220E0
1.457591677E0,3.909521580E0,-4.061570168E-1,-5.544676781E0
1.462650635E0,4.509001732E0,1.399226189E-1,-6.527462482E0
1.467750635E0,4.682912350E0,6.920843124E-1,-7.235336304E0
1.472850635E0,4.393683434E0,1.059092999E0,-7.325403690E0
1.477950635E0,3.605812073E0,1.166660309E0,-6.991067410E0
1.483050635E0,2.413304806E0,1.017490387E0,-6.228344440E0
1.488148552E0,1.153413296E0,6.238594055E-1,-5.123181820E0
1.493212667E0,1.860442162E-1,3.651022911E-1,-3.892564774E0
1.498276677E0,-3.295454979E-1,2.330989838E-1,-2.853742599E0
1.503340792E0,-4.508476257E-1,8.478355408E-2,-1.987826705E0
1.508249906E0,-2.022023201E-1,-1.831746101E-1,-1.223951697E0
1.513306260E0,1.771850586E-1,-6.336393356E-1,-5.229848027E-1
1.518362615E0,5.057873726E-1,-1.069019318E0,-6.505206227E-3
1.523418917E0,1.140844822E0,-1.485277176E0,5.946103930E-1
1.528508344E0,1.937592983E0,-1.777925491E0,1.291678786E0
1.533566365E0,2.557801723E0,-1.753895760E0,1.834124565E0
1.538624385E0,3.115791321E0,-1.514669418E0,2.197873831E0
1.543682406E0,3.543343544E0,-1.371738434E0,2.276493549E0
1.548649177E0,3.709566593E0,-1.349618912E0,2.212974310E0
1.553702562E0,3.610458851E0,-1.263757706E0,1.892964840E0
1.558756000E0,3.536858559E0,-8.380270004E-1,1.271029234E0
1.563809437E0,3.664422512E0,1.075792313E-1,2.092648447E-1
1.568909437E0,2.565956593E0,4.932193756E-1,-6.956040859E-1
1.574009437E0,1.006001949E0,9.707264900E-1,-1.581602693E0
1.579109437E0,-1.239354610E-1,1.583870411E0,-1.336132407E0
1.584209437E0,-3.675635576E0,-4.390077591E-1,1.349324942E0
1.589309437E0,-3.352848768E0,-1.268235207E0,1.787173629E0
1.594409437E0,-7.347278595E-1,-5.220870972E-1,1.005387068E0
1.599509437E0,1.234037399E0,4.167518616E-1,6.240255833E-1
1.604603083E0,2.392652750E0,1.120819092E0,4.851100445E-1
1.609700687E0,2.778564215E0,1.838017941E0,5.118767023E-1
1.614761000E0,2.176661968E0,2.410079956E0,8.283646107E-1
1.619821312E0,1.422100306E0,2.771473885E0,1.075672626E0
1.624881625E0,8.555378914E-1,2.661032677E0,1.224146008E0
1.629802094E0,5.608496666E-1,2.390236855E0,1.344388247E0
1.634855427E0,1.602244377E-1,2.185631275E0,1.471321225E0
1.639908760E0,-2.189915180E-1,2.065586567E0,1.623083591E0
1.644962094E0,-4.565398693E-1,2.202064037E0,1.640132904E0
1.650060427E0,-5.886750221E-1,2.241795063E0,1.598116159E0
1.655116052E0,-6.836658716E-1,2.227765560E0,1.525879502E0
1.660171677E0,-6.989520788E-1,2.465592384E0,1.467583656E0
1.665227250E0,-7.924920321E-1,2.644230843E0,1.360741377E0
1.670318760E0,-8.866417408E-1,2.759417534E0,1.175750852E0
1.675376156E0,-1.068738461E0,2.591476440E0,1.223080873E0
1.680433604E0,-1.343361974E0,2.270193577E0,1.264681339E0
1.685491052E0,-1.595384121E0,1.686349392E0,1.111016512E0
1.690591052E0,-1.427334309E0,1.480709553E0,6.873679757E-1
1.695691052E0,-1.624976397E0,9.309654236E-1,3.488280773E-1
1.700791052E0,-1.990438581E0,4.059724808E-1,3.627333641E-1
1.705891052E0,-2.115745068E0,3.965663910E-2,5.502820015E-1
1.710991052E0,-2.166289806E0,-4.210338593E-1,8.858225942E-1
1.716056365E0,-2.126039505E0,-8.752870560E-1,1.119903564E0
1.721119229E0,-2.064338684E0,-9.982118607E-1,1.161952972E0
1.726182042E0,-1.717335224E0,-1.000840187E0,1.246011496E0
1.731094958E0,-1.293441296E0,-8.029232025E-1,1.342579603E0
1.736150271E0,-1.006510496E0,-2.851247787E-1,1.437694311E0
1.741205635E0,-8.965242505E-1,7.419271469E-1,1.472681761E0
1.746261000E0,-6.567811966E-1,1.211862564E0,1.880860925E0
1.751353292E0,-8.900023103E-1,1.082995415E0,1.535904169E0
1.756410479E0,-1.041264176E0,2.595401287E0,9.355580807E-2
1.761467667E0,-1.852466464E-1,3.256583214E0,-8.660613894E-1
1.766524906E0,-1.371591687E-1,4.615496159E0,-1.378012180E0
1.771611729E0,-1.327188313E-2,5.567171574E0,-7.615479231E-1
1.776670427E0,2.533426136E-2,5.716322422E0,-8.131298423E-2
1.781729125E0,-1.977669895E-1,6.268107414E0,3.173443973E-1
1.786787823E0,-2.125753909E-1,6.528828621E0,1.271918118E-1
1.791887823E0,-4.075931609E-1,6.079092979E0,4.929325283E-1
1.796987823E0,-9.465296865E-1,5.708729744E0,1.203535914E0
1.802087823E0,-1.567468882E0,5.035621166E0,2.529422283E0
1.807187823E0,-2.105061769E0,3.970582962E0,3.818455935E0
1.812286573E0,-2.286805153E0,3.365976334E0,4.233328342E0
1.817350375E0,-9.607580900E-1,2.094154358E-1,1.376823187E0
1.822414281E0,1.518667936E-1,-8.589076996E-2,-3.529212713E0
1.827478135E0,-1.613059044E-1,5.173927784E0,-1.044588566E0
1.832387927E0,3.058139086E-1,7.139154434E0,1.412204742E0
1.837444125E0,7.787087560E-1,7.417455673E0,2.077721834E0
1.842500271E0,1.100674510E0,6.873558044E0,1.350478530E0
1.847556417E0,1.268899798E0,5.615756035E0,-4.761886597E-2
1.852656417E0,1.321513295E0,4.608166218E0,-8.885592818E-1
1.857756417E0,1.434061289E0,5.227862835E0,1.021959543E0
1.862856417E0,1.456694365E0,6.352349281E0,3.401828766E0
1.867956417E0,1.350885034E0,6.641216278E0,4.173532963E0
1.872904906E0,1.089545012E0,6.329409599E0,4.624533653E0
1.877962771E0,1.054502845E0,6.153866768E0,4.536266804E0
1.883020635E0,1.037015438E0,5.975223541E0,4.106254578E0
1.888078500E0,8.423237205E-1,5.750104904E0,3.326656342E0
1.893178500E0,6.770759821E-1,5.483098030E0,2.103199482E0
1.898278500E0,3.901825547E-1,4.925566196E0,1.326132774E0
1.903378500E0,-1.320154071E0,2.234806061E0,8.457536101E-1
1.908478500E0,-2.939383745E0,-2.674275398E0,9.369961023E-1
1.913566625E0,-4.577728271E0,-9.241763115E0,-1.153694391E0
1.918624490E0,-5.158265591E0,-1.669925690E1,-3.129687309E0
1.923709333E0,-5.378678322E0,-2.219326782E1,-2.710755110E0
1.928768604E0,-5.798213005E0,-2.831751633E1,-1.345587373E0
1.933827771E0,-5.052478790E0,-3.401034546E1,-2.944892645E-1
1.938887042E0,-3.493803740E0,-3.622676086E1,9.568197131E-1
1.943967927E0,-1.715784788E0,-3.319160461E1,2.741457701E0
1.949028240E0,-9.602437615E-1,-2.368008041E1,3.391709328E0
1.954088552E0,-1.563617349E0,-1.317566776E1,2.465485334E0
1.959148812E0,-2.465186596E0,-5.818284988E0,1.008233070E0
1.964226417E0,-3.131942987E0,-1.241454124E0,-2.178734243E-1
1.969287562E0,-3.454945087E0,1.628459930E0,-9.812191725E-1
1.974348760E0,-3.398873091E0,3.184329987E0,-1.330190063E0
1.979409906E0,-3.178735256E0,3.985362053E0,-1.881026745E0
1.984484906E0,-2.801545620E0,4.230910301E0,-2.388855219E0
1.989546781E0,-2.621963978E0,3.929060936E0,-1.796830177E0
1.994608656E0,-3.089293480E0,1.430161953E0,-9.457890391E-1
1.999670479E0,-3.339533806E0,-1.881225586E0,-5.312305093E-1
2.004743500E0,-2.805519581E0,-3.810022354E0,4.769718647E-2
2.009805948E0,-2.306932688E0,-4.594814301E0,9.396325350E-1
2.014868344E0,-1.002040029E0,-2.437198639E0,2.141906500E0
2.019930792E0,2.363792896E0,7.470712662E-1,2.584615231E0
2.025002042E0,6.247064114E0,1.195782661E0,1.893061280E0
2.030064906E0,9.302295685E0,4.892158508E-2,3.961755633E-1
2.035127771E0,1.140252209E1,-1.194087982E0,-6.135129333E-1
2.040190687E0,1.219675827E1,-1.435450554E0,-1.495904922E0
2.045260635E0,1.140382004E1,-2.497148514E-1,-2.125770807E0
2.050323865E0,9.862712860E0,1.448063850E0,-2.171254158E0
2.055387094E0,8.244185448E0,2.960962296E0,-2.021234512E0
2.060450323E0,6.330236435E0,3.880336761E0,-1.927776814E0
2.065519229E0,4.626472473E0,3.956450462E0,-1.719936252E0
2.070582771E0,3.617301226E0,3.326936722E0,-1.555251837E0
2.075646260E0,2.665102720E0,2.333955288E0,-1.432203293E0
2.080709802E0,1.943612576E0,1.304141998E0,-1.397236347E0
2.085777823E0,1.456464529E0,4.816770554E-1,-1.454366088E0
2.090841573E0,9.584360123E-1,-3.318595886E-2,-1.441065073E0
2.095905323E0,4.013864994E-1,-2.310314178E-1,-1.324922919E0
2.100969021E0,-1.426753998E-1,-2.314090729E-1,-1.146478176E0
2.106036365E0,-4.916356802E-1,-2.731571198E-1,-8.572114706E-1
2.111100271E0,-7.363049984E-1,-2.413673401E-1,-5.342203379E-1
2.116164229E0,-8.337829113E-1,-9.822559357E-2,-2.513316870E-1
2.121228135E0,-8.988978863E-1,-2.504434586E-1,-8.318531513E-2
2.126294958E0,-1.041034698E0,-4.637165070E-1,-8.594036102E-2
2.131359073E0,-1.158646584E0,-6.475620270E-1,-2.254060507E-1
2.136423083E0,-1.236223221E0,-7.784843445E-1,-4.339219332E-1
2.141487146E0,-1.306466460E0,-9.715938568E-1,-7.009970546E-1
2.146514229E0,-1.287670135E0,-1.183959007E0,-1.038681746E0
2.151576417E0,-1.103954554E0,-1.339332581E0,-1.309389353E0
2.156638656E0,-9.714553356E-1,-1.332856178E0,-1.397766948E0
2.161700844E0,-1.081900120E0,-1.136303902E0,-1.417516232E0
2.166772771E0,-1.329401731E0,-9.122304916E-1,-1.471746802E0
2.171835479E0,-1.397416711E0,-7.746496201E-1,-1.485456109E0
2.176898187E0,-1.291292906E0,-7.706708908E-1,-1.441202283E0
2.181960896E0,-1.060079098E0,-8.089723587E-1,-1.302855015E0
2.186865896E0,-9.105746746E-1,-7.554540634E-1,-1.158383250E0
2.191770896E0,-7.912691832E-1,-6.439933777E-1,-9.358264208E-1
2.196675896E0,-5.878278017E-1,-6.276302338E-1,-6.781796217E-1
2.201580896E0,-4.631094933E-1,-5.056819916E-1,-4.723333120E-1
2.206660740E0,-3.645412922E-1,-3.647136688E-1,-3.389974833E-1
2.211708240E0,-2.956931591E-1,-3.003520966E-1,-3.134859800E-1
2.216755740E0,-2.653703690E-1,-2.695922852E-1,-3.164005280E-1
2.221803240E0,-2.111060619E-1,-2.008790970E-1,-4.781917334E-1
2.226903240E0,-1.855752468E-1,-1.374931335E-1,-6.323421001E-1
2.232003240E0,-2.031300068E-1,-7.948398590E-2,-8.029945493E-1
2.237103240E0,-3.021028042E-1,-7.941341400E-2,-1.023324132E0
2.242203240E0,-3.819727898E-1,-2.715587616E-2,-1.345078468E0
2.247303240E0,-4.952774048E-1,5.707740784E-3,-1.733492851E0
2.252403240E0,-5.654716492E-1,7.197952271E-2,-2.029600620E0
2.257503240E0,-6.785787344E-1,1.287279129E-1,-2.261576176E0
2.262603240E0,-7.438777685E-1,1.426162720E-1,-2.457532883E0
2.267703240E0,-6.565297842E-1,-2.480030060E-2,-2.445307016E0
2.272803240E0,-6.947692633E-1,-1.057987213E-1,-2.636224747E0
2.277903240E0,-7.718657255E-1,-1.912374496E-1,-2.786231518E0
2.283003240E0,-7.105838060E-1,-4.816875458E-1,-2.685387135E0
2.288103240E0,-7.360228300E-1,-7.904882431E-1,-2.621201515E0
2.293203240E0,-8.864165545E-1,-1.108141899E0,-2.493423462E0
2.298303240E0,-1.099672437E0,-1.396509171E0,-2.364305019E0
2.303403240E0,-1.332113028E0,-1.569522858E0,-2.276896715E0
2.308503240E0,-1.564395428E0,-1.727754593E0,-2.288606167E0
2.313603240E0,-1.810606837E0,-1.852018356E0,-2.312949896E0
2.318703240E0,-1.998733401E0,-1.985271454E0,-2.301920414E0
2.323766625E0,-2.104738235E0,-2.280208588E0,-2.216749191E0
2.328723917E0,-2.118880987E0,-2.631161690E0,-2.023494005E0
2.333779125E0,-2.089679718E0,-3.090505600E0,-1.763769031E0
2.338834385E0,-2.011978626E0,-3.514510155E0,-1.442085147E0
2.343889594E0,-1.857178092E0,-3.970075607E0,-1.177244544E0
2.348982250E0,-1.687566519E0,-4.442755699E0,-1.044651031E0
2.354039385E0,-1.526815414E0,-4.817935944E0,-9.250722528E-1
2.359096521E0,-1.384384632E0,-5.038547516E0,-7.321851254E-1
2.364153656E0,-1.135571122E0,-5.167083740E0,-4.809293747E-1
2.369253656E0,-8.090662956E-1,-5.093964577E0,-3.104615808E-1
2.374353656E0,-4.334385395E-1,-4.714708328E0,-1.599856019E-1
2.379453656E0,-1.344490051E-2,-4.106570244E0,-4.475158453E-2
2.384553656E0,5.369186401E-1,-3.423063278E0,-1.817089319E-2
2.389653656E0,1.197432995E0,-2.717235565E0,-1.710810661E-1
2.394719542E0,1.765624523E0,-1.817665100E0,-4.027716517E-1
2.399782146E0,2.417216063E0,-8.207139969E-1,-7.118799090E-1
2.404844750E0,3.356305122E0,-3.385591507E-1,-1.254102230E0
2.409915427E0,4.212579727E0,-4.136762619E-1,-1.666428924E0
2.414978448E0,4.727292061E0,-6.488113403E-1,-1.609965563E0
2.420041417E0,5.025711060E0,-8.338251114E-1,-9.868860245E-1
2.425104437E0,5.090506077E0,-8.592700958E-1,1.395737827E-1
2.430016833E0,4.824455738E0,-7.873659134E-1,1.406606674E0
2.435072302E0,4.678043365E0,-6.378526688E-1,2.321468830E0
2.440127771E0,4.614768982E0,-4.820919037E-1,2.895542145E0
2.445183240E0,4.725783348E0,-4.967527390E-1,3.475694656E0
2.450275219E0,4.834191322E0,-6.766853333E-1,3.923019409E0
2.455332510E0,4.854274750E0,-8.443069458E-1,4.171931744E0
2.460389854E0,4.838768005E0,-1.004442215E0,4.046890259E0
2.465447146E0,4.697285652E0,-1.051869392E0,3.692264795E0
2.470533604E0,4.468951225E0,-1.029856682E0,3.157832146E0
2.475592406E0,4.149302483E0,-9.095907211E-1,2.370622158E0
2.480651208E0,3.886181355E0,-8.349790573E-1,1.671215177E0
2.485709958E0,3.582570076E0,-7.775554657E-1,1.421534777E0
2.490809958E0,3.150465012E0,-6.185808182E-1,1.319596291E0
2.495909958E0,2.789685488E0,-4.534339905E-1,1.342977643E0
2.501009958E0,2.245414734E0,-3.870725632E-1,1.475282550E0
2.506109958E0,1.596909285E0,-1.992759705E-1,1.622852445E0
2.511208344E0,1.095695496E0,2.726068497E-1,1.831065536E0
2.516272302E0,8.312149048E-1,6.561946869E-1,2.039955139E0
2.521336208E0,5.716109276E-2,4.928512573E-1,2.245985270E0
2.526400115E0,-5.471048355E-1,4.677133560E-1,2.820886374E0
2.531309750E0,-1.181974411E0,1.147289276E-1,3.515405416E0
2.536365948E0,-2.007386208E0,-4.101791382E-1,4.176454544E0
2.541422146E0,-2.771265984E0,-7.884397507E-1,4.308775425E0
2.546478396E0,-3.633891106E0,-1.105647087E0,3.900393248E0
2.551578396E0,-4.377194405E0,-1.281132698E0,3.367844582E0
2.556678396E0,-4.823819160E0,-1.348676682E0,2.760725498E0
2.561778396E0,-4.917077541E0,-1.247637749E0,2.398128033E0
2.566878396E0,-4.990249157E0,-1.295101166E0,2.485635757E0
2.571826677E0,-4.717506409E0,-1.274722099E0,2.677032948E0
2.576884594E0,-4.380115986E0,-1.136536598E0,2.734869957E0
2.581942510E0,-4.031087875E0,-1.028244019E0,2.628572464E0
2.587000375E0,-3.609216452E0,-9.357461929E-1,2.529823303E0
2.592100375E0,-3.110941887E0,-7.113475800E-1,2.533645630E0
2.597200375E0,-2.619686127E0,-3.883590698E-1,2.588818550E0
2.602300375E0,-2.122618198E0,-4.797554016E-2,2.712183952E0
2.607400375E0,-1.692771673E0,2.241806984E-1,2.810640335E0
2.612500375E0,-1.245342731E0,3.856325150E-1,2.777179718E0
2.617564646E0,-8.525300026E-1,9.391956329E-1,2.901873112E0
2.622627875E0,-3.268973827E-1,1.507207870E0,2.873764992E0
2.627691104E0,2.268009186E-1,1.727947235E0,2.763150692E0
2.632759906E0,6.455426216E-1,1.836862087E0,2.760328293E0
2.637823396E0,7.955732346E-1,1.987711906E0,2.859537125E0
2.642886937E0,8.502025604E-1,2.123881817E0,2.912156582E0
2.647950427E0,1.024438858E0,2.150417805E0,2.922297478E0
2.652861312E0,1.017051220E0,2.283642292E0,2.998739243E0
2.657917146E0,8.675050735E-1,2.335909843E0,2.991075993E0
2.662973031E0,7.436079979E-1,2.246071815E0,2.917739391E0
2.668028917E0,4.684929848E-1,2.152778149E0,2.879698277E0
2.673119646E0,2.004661560E-1,2.017443180E0,2.849083424E0
2.678177302E0,-7.384490967E-2,1.901572704E0,2.851680279E0
2.683234906E0,-2.249128819E-1,1.938277245E0,2.888820648E0
2.688292562E0,-3.290994167E-1,1.940342426E0,2.961497784E0
2.693392562E0,-5.003943443E-1,1.936220169E0,2.989453316E0
2.698492562E0,-6.665954590E-1,1.911286354E0,3.006930828E0
2.703592562E0,-7.270946503E-1,1.999108315E0,3.024078846E0
2.708692562E0,-7.970890999E-1,2.046354294E0,2.973917961E0
2.713792562E0,-8.582708836E-1,2.091203213E0,2.879878044E0
2.718857354E0,-9.405636787E-1,2.147895336E0,2.803198814E0
2.723920375E0,-1.035073519E0,2.178339958E0,2.566057205E0
2.728983344E0,-1.133174181E0,2.196824074E0,2.244484663E0
2.734052823E0,-1.163443327E0,2.184666157E0,1.890195608E0
2.739116156E0,-1.160468340E0,2.108261108E0,1.598213434E0
2.744179542E0,-1.215600014E0,2.010580540E0,1.262999058E0
2.749242823E0,-1.334198952E0,2.025247574E0,9.798955917E-1
2.754154229E0,-1.378614426E0,1.959573269E0,6.113982201E-1
2.759209958E0,-1.246697903E0,1.820943832E0,1.452393532E-1
2.764265687E0,-1.175386906E0,1.659812927E0,-1.538076401E-1
2.769321417E0,-1.060321331E0,1.537535191E0,-2.998371124E-1
2.774412562E0,-1.049092770E0,1.497060776E0,-4.170532227E-1
2.779470115E0,-1.007048368E0,1.465767860E0,-4.989185333E-1
2.784527667E0,-9.619667530E-1,1.443891525E0,-5.309576988E-1
2.789585167E0,-9.418983459E-1,1.326037407E0,-5.697526932E-1
2.794685167E0,-7.593841553E-1,1.165263653E0,-6.151392460E-1
2.799785167E0,-5.149228573E-1,9.897265434E-1,-6.705832481E-1
2.804885167E0,-3.377344608E-1,8.659138680E-1,-7.303805351E-1
2.809985167E0,-4.001097679E-1,8.651404381E-1,-8.562879562E-1
2.815085167E0,-4.719114304E-1,9.393048286E-1,-9.902915955E-1
2.820150115E0,-4.192562103E-1,9.111666679E-1,-1.169842482E0
2.825213031E0,-3.146219254E-1,8.002743721E-1,-1.304952860E0
2.830276000E0,-1.636703014E-1,6.688094139E-1,-1.415185690E0
2.835345792E0,3.311681747E-2,5.025424957E-1,-1.510589838E0
2.840409073E0,1.890108585E-1,2.297277451E-1,-1.682223797E0
2.845472302E0,3.558039665E-1,-4.921245575E-2,-2.006825447E0
2.850535583E0,5.136425495E-1,-3.249826431E-1,-2.245059729E0
2.855604333E0,6.532588005E-1,-5.306167603E-1,-2.482925177E0
2.860667875E0,7.372074127E-1,-7.138929367E-1,-2.906374454E0
2.865731417E0,7.470462322E-1,-7.982883453E-1,-3.332978725E0
2.870794958E0,8.938639164E-1,-9.464387894E-1,-3.843302011E0
2.875862927E0,1.100743771E0,-1.220495224E0,-4.350833893E0
2.880926677E0,1.376694202E0,-1.443685532E0,-5.003137589E0
2.885990479E0,1.830688953E0,-1.616686821E0,-5.870580673E0
2.891054229E0,2.279799223E0,-1.673493385E0,-6.707269192E0
2.895964281E0,2.599552155E0,-1.644249916E0,-7.284376144E0
2.901020375E0,2.813580990E0,-1.519554138E0,-7.301472187E0
2.906076469E0,2.824017286E0,-1.356802940E0,-6.790207386E0
2.911132562E0,2.694968939E0,-1.069464684E0,-6.100056648E0
2.916232562E0,2.403641939E0,-7.145814896E-1,-5.150690079E0
2.921332562E0,2.008942366E0,-3.440856934E-1,-3.991310358E0
2.926432562E0,1.468570709E0,6.675148010E-2,-2.940018892E0
2.931532562E0,9.261984825E-1,4.708871841E-1,-2.090264797E0
2.936632562E0,4.438452721E-1,7.925601006E-1,-1.492040396E0
2.941700635E0,6.665468216E-3,1.085136890E0,-1.047146797E0
2.946762406E0,-3.289890289E-1,1.310563564E0,-7.138972282E-1
2.951824177E0,-5.923097134E-1,1.488334179E0,-4.072477818E-1
2.956740219E0,-7.878031731E-1,1.619208813E0,-3.102626801E-1
2.961794698E0,-9.840462208E-1,1.683197975E0,-3.116235733E-1
2.966849229E0,-1.152005672E0,1.714289665E0,-3.688995838E-1
2.971903708E0,-1.181387901E0,1.612340450E0,-3.720195293E-1
2.976998500E0,-1.048026562E0,1.392099857E0,-2.778775692E-1
2.982055010E0,-8.181855679E-1,1.049314976E0,-1.867165565E-1
2.987111521E0,-6.109788418E-1,7.565312386E-1,-1.797535419E-1
2.992168031E0,-4.929397106E-1,3.896360397E-1,-2.666647434E-1
2.997256833E0,-2.829563618E-1,6.819629669E-2,-2.950067520E-1
3.002315010E0,3.763628006E-2,-1.456489563E-1,-2.559397221E-1
3.007373135E0,3.151662350E-1,-2.570905685E-1,-2.500112057E-1
3.012431312E0,5.016639233E-1,-2.809095383E-1,-2.241735458E-1
3.017531312E0,6.785295010E-1,-3.367595673E-1,-1.976830959E-1
3.022631312E0,8.655798435E-1,-6.586532593E-1,-4.112172127E-2
3.027731312E0,1.139806032E0,-1.006990433E0,1.451232433E-1
3.032831312E0,1.486871004E0,-1.587330818E0,3.612763882E-1
3.037931312E0,1.815754414E0,-2.389967918E0,6.413145065E-1
3.042994958E0,2.193850756E0,-3.424150467E0,9.619596004E-1
3.048058344E0,2.712152004E0,-4.651341438E0,1.266370893E0
3.053121781E0,3.236799717E0,-5.928140640E0,1.369511724E0
3.058190062E0,3.725205660E0,-7.230955124E0,1.245037198E0
3.063253708E0,4.112115860E0,-8.330448151E0,8.343682289E-1
3.068317406E0,4.217328548E0,-8.930746078E0,2.937567234E-1
3.073381052E0,3.678252697E0,-8.473403931E0,-2.660465240E-1
3.078448656E0,2.499894619E0,-7.007687569E0,-5.893111229E-1
3.083512510E0,1.040705681E0,-4.893328667E0,-2.928481102E-1
3.088576365E0,-1.459567547E-1,-2.705040932E0,7.486095428E-1
3.093640271E0,-8.771166801E-1,-8.309183121E-1,2.111101389E0
3.098550010E0,-1.194446325E0,6.284875870E-1,3.649004459E0
3.103606208E0,-1.374750137E0,1.713173389E0,4.872395515E0
3.108662354E0,-1.623358011E0,2.739079475E0,5.587150574E0
3.113718500E0,-1.866381526E0,3.385611534E0,5.813233376E0
3.118818500E0,-2.130666256E0,3.518708229E0,5.916251183E0
3.123918500E0,-2.453578472E0,3.354041100E0,5.836921692E0
3.129018500E0,-2.556795120E0,2.974105835E0,5.880198479E0
3.134118500E0,-2.506854296E0,2.614310265E0,6.220645905E0
3.139218500E0,-2.298826694E0,2.108083725E0,6.185801029E0
3.144286417E0,-2.082752466E0,1.737843037E0,5.796890259E0
3.149348240E0,-1.784237504E0,1.364753246E0,5.376020908E0
3.154410062E0,-1.440235972E0,9.644455910E-1,5.077640533E0
3.159483083E0,-1.230514765E0,5.746326447E-1,4.684488297E0
3.164545479E0,-9.606025219E-1,1.756258011E-1,4.272835732E0
3.169607875E0,-7.128603458E-1,-1.039390564E-1,3.871722221E0
3.174670271E0,-6.546909809E-1,-2.979946136E-1,3.496310711E0
3.179584437E0,-7.231945992E-1,-3.688554764E-1,3.354388237E0
3.184639437E0,-7.922022343E-1,-4.400587082E-1,3.391072273E0
3.189694385E0,-8.177607059E-1,-5.885496140E-1,3.398787498E0
3.194749385E0,-8.844602108E-1,-5.514602661E-1,3.418969631E0
3.199842771E0,-1.066609621E0,-5.680427551E-1,3.349672318E0
3.204899698E0,-1.113307476E0,-5.996952057E-1,3.212899685E0
3.209956625E0,-1.014261246E0,-5.790376663E-1,3.080448389E0
3.215013552E0,-8.645329475E-1,-5.488157272E-1,2.842299700E0
3.220061885E0,-7.787933350E-1,-5.757846832E-1,2.498181343E0
3.225118396E0,-6.568260193E-1,-5.593996048E-1,2.195803642E0
3.230174906E0,-4.940650463E-1,-6.383056641E-1,1.920228481E0
3.235231417E0,-3.811993599E-1,-9.078216553E-1,1.618481517E0
3.240331417E0,-3.314700127E-1,-1.185548782E0,1.366686463E0
3.245431417E0,-3.302092552E-1,-1.251483917E0,1.112103105E0
3.250531417E0,-3.398962021E-1,-1.225573540E0,8.246780038E-1
3.255631417E0,-3.806316853E-1,-1.045971870E0,3.213633895E-1
3.260731417E0,-5.543107986E-1,-6.843719482E-1,-1.065034151E0
3.265831417E0,-7.577867508E-1,-1.649131775E-1,-2.923450947E0
3.270902094E0,-7.060320377E-1,2.061767578E-1,-3.757678032E0
3.275965167E0,-4.138500690E-1,5.007200241E-1,-3.790724277E0
3.280877250E0,4.711771011E-2,7.657623291E-1,-3.505894661E0
3.285932771E0,4.972863197E-1,7.627058029E-1,-3.094820976E0
3.290988344E0,9.797856808E-1,6.724185944E-1,-2.633789539E0
3.296043865E0,1.365228176E0,6.282377243E-1,-2.216374636E0
3.301135583E0,1.686421633E0,5.770168304E-1,-1.812558651E0
3.306192927E0,1.778848648E0,6.567163467E-1,-1.501677752E0
3.311250323E0,1.684671402E0,7.619743347E-1,-1.125180721E0
3.316307667E0,1.275998592E0,9.794931412E-1,-7.372964025E-1
3.321407667E0,8.138208389E-1,9.898529053E-1,-3.605542183E-1
3.326507667E0,6.063964367E-1,7.799406052E-1,-2.178146839E-1
3.331607667E0,4.344451427E-1,4.796934128E-1,-3.167569637E-1
3.336707667E0,1.883828640E-1,2.616453171E-1,-4.544941783E-1
3.341807667E0,-6.493735313E-2,1.639823914E-1,-5.860903263E-1
3.346872979E0,-1.544036865E-1,-1.928138733E-2,-5.321139693E-1
3.351935792E0,-1.197822094E-1,-6.364250183E-2,-3.513005078E-1
3.356998604E0,-1.682252884E-1,-3.666782379E-2,-2.637373209E-1
3.362068708E0,-4.722185135E-1,7.094001770E-2,-1.638919115E-1
3.367131833E0,-7.529881001E-1,1.828880310E-1,2.450692654E-2
3.372195010E0,-8.902491331E-1,2.802877426E-1,3.966383338E-1
3.377258187E0,-9.222639799E-1,4.827451706E-1,9.137519598E-1
3.382170062E0,-9.732564688E-1,7.470998764E-1,1.256114006E0
3.387225687E0,-9.853950739E-1,9.156484604E-1,1.465215921E0
3.392281312E0,-9.926663637E-1,1.055299759E0,1.431589365E0
3.397336885E0,-8.951152563E-1,1.075088501E0,1.242130995E0
3.402436885E0,-8.416990042E-1,1.180598259E0,9.922028780E-1
3.407536885E0,-8.138295412E-1,1.347578049E0,6.152783036E-1
3.412636885E0,-7.492924929E-1,1.289031029E0,3.179343939E-1
3.417736885E0,-6.531152725E-1,1.206026077E0,8.580330014E-2
3.422836885E0,-5.111563206E-1,1.170242310E0,8.625988662E-2
3.427906000E0,-3.710877895E-1,1.095580101E0,1.656662226E-1
3.432967406E0,-2.039215565E-1,1.130366325E0,1.851940155E-1
3.438028812E0,1.096248627E-1,1.116559029E0,1.071647927E-1
3.443103083E0,3.778512478E-1,1.054142952E0,4.240742326E-2
3.448165115E0,5.005660057E-1,9.384241104E-1,-3.309781849E-2
3.453227146E0,6.073117256E-1,8.459920883E-1,-2.495238036E-1
3.458289177E0,6.747598648E-1,7.099733353E-1,-4.876403511E-1
3.463361625E0,6.266601086E-1,5.830125809E-1,-7.430254817E-1
3.468424177E0,5.450563431E-1,5.226058960E-1,-1.048703432E0
3.473486729E0,4.445786476E-1,4.378767014E-1,-1.461068630E0
3.478549333E0,3.301928043E-1,4.245634079E-1,-1.849818707E0
3.483620115E0,1.447858810E-1,4.683017731E-1,-2.166769743E0
3.488683083E0,-2.069783211E-2,3.969335556E-1,-2.439951420E0
3.493746052E0,-1.327533722E-1,2.777185440E-1,-2.754014969E0
3.498809021E0,-2.493066788E-1,2.207698822E-1,-3.044707298E0
3.503878708E0,-2.897670269E-1,5.388832092E-2,-3.272028685E0
3.508942042E0,-3.025741577E-1,-1.222305298E-1,-3.400610447E0
3.514005323E0,-3.461298943E-1,-3.650341034E-1,-3.467618227E0
3.519068656E0,-3.153905869E-1,-6.312999725E-1,-3.434288025E0
3.524137198E0,-3.869345188E-1,-8.777751923E-1,-3.310532570E0
3.529200792E0,-4.313352108E-1,-1.128436089E0,-3.073852777E0
3.534264333E0,-5.676324368E-1,-1.388010979E0,-2.826136351E0
3.539327927E0,-7.996704578E-1,-1.575148582E0,-2.535866022E0
3.544395740E0,-9.642243385E-1,-1.747371674E0,-2.185948610E0
3.549459490E0,-1.075013638E0,-1.971569061E0,-1.821085453E0
3.554523292E0,-1.179028869E0,-2.046659470E0,-1.418568373E0
3.559587094E0,-1.175358176E0,-2.101933479E0,-1.013442159E0
3.564654281E0,-1.245603442E0,-2.037035942E0,-7.073444724E-1
3.569718240E0,-1.337067723E0,-1.952651024E0,-5.393866301E-1
3.574782250E0,-1.488627076E0,-1.758201599E0,-4.713668823E-1
3.579846208E0,-1.686475992E0,-1.597466469E0,-6.509430408E-1
3.584912875E0,-1.906981945E0,-1.513451576E0,-8.664040565E-1
3.589976990E0,-2.140546322E0,-1.467620850E0,-9.726101160E-1
3.595041052E0,-2.105066299E0,-1.440661430E0,-9.971278906E-1
3.600105167E0,-1.763088703E0,-1.537771225E0,-1.240354538E0
3.605171417E0,-1.239514947E0,-1.710904121E0,-1.514676690E0
3.610235635E0,-7.686500549E-1,-1.744655609E0,-1.748045444E0
3.615299854E0,-4.077410698E-1,-1.543621063E0,-1.964880586E0
3.620364021E0,-1.141204834E-1,-1.467031479E0,-2.204343319E0
3.625429906E0,4.494929314E-2,-1.601003647E0,-2.433649540E0
3.630494229E0,-2.383708954E-3,-1.873657227E0,-2.576563358E0
3.635558500E0,-2.083318233E-1,-2.217905998E0,-2.704416990E0
3.640622771E0,-5.437431335E-1,-2.695622444E0,-2.687259436E0
3.645688500E0,-8.983674049E-1,-3.215646744E0,-2.605830193E0
3.650752927E0,-1.263028741E0,-3.682339668E0,-2.473782539E0
3.655817250E0,-1.762351036E0,-4.138835907E0,-2.357364893E0
3.660881573E0,-2.271503448E0,-4.556240082E0,-2.217288017E0
3.665947042E0,-2.694307804E0,-4.924779892E0,-2.019283056E0
3.671011521E0,-3.039660931E0,-5.172505379E0,-1.810860276E0
3.676075896E0,-3.302286625E0,-5.462003708E0,-1.649524689E0
3.681140323E0,-3.452896118E0,-5.783463478E0,-1.530531645E0
3.686205635E0,-3.625062704E0,-5.916785240E0,-1.406101704E0
3.691270115E0,-3.626867771E0,-5.890781403E0,-1.209395051E0
3.696334542E0,-3.472775698E0,-5.662755013E0,-1.046552658E0
3.701399021E0,-3.163004398E0,-5.233160019E0,-9.807506800E-1
3.706424854E0,-2.664731741E0,-4.688700676E0,-9.657868147E-1
3.711487354E0,-2.045554876E0,-3.876749039E0,-1.040581226E0
3.716549854E0,-1.263173461E0,-3.104000092E0,-1.339978099E0
3.721612406E0,-3.717792034E-1,-2.222585678E0,-1.700256348E0
3.726683344E0,4.495751858E-1,-1.238007545E0,-2.009341955E0
3.731746260E0,1.123142719E0,-4.233732224E-1,-2.322678804E0
3.736809229E0,1.560572386E0,1.298522949E-1,-2.642913103E0
3.741872146E0,1.692709208E0,9.805164337E-1,-2.629193068E0
3.746777146E0,1.659082174E0,1.726380825E0,-2.179794312E0
3.751682146E0,1.647280693E0,2.391631603E0,-1.637904406E0
3.756587146E0,1.563390255E0,2.579843521E0,-1.485445976E0
3.761492146E0,1.543643713E0,2.430797577E0,-1.442392945E0
3.766492771E0,1.459962606E0,2.389567375E0,-1.093206167E0
3.771538552E0,1.247265816E0,2.527781487E0,-3.811071515E-1
3.776584333E0,9.978315830E-1,2.381360054E0,3.409081399E-1
3.781630115E0,6.974632740E-1,2.031810284E0,1.011235356E0
3.786730115E0,4.269263744E-1,1.589004993E0,1.484687567E0
3.791830115E0,2.008724213E-1,1.163337708E0,1.829378843E0
3.796930115E0,6.774139404E-2,6.977329254E-1,1.948865414E0
3.802030115E0,2.342462540E-2,1.160640717E-1,1.876781821E0
3.807130115E0,-5.597209930E-2,-5.048398972E-1,1.652034044E0
3.812230115E0,2.590775490E-2,-1.231770515E0,1.571218491E0
3.817330115E0,2.250461578E-1,-1.916512489E0,1.528192401E0
3.822430115E0,4.588797092E-1,-2.373027802E0,1.580171466E0
3.827530115E0,6.555542946E-1,-2.615928650E0,1.726790547E0
3.832630115E0,8.246729374E-1,-2.726626396E0,1.881283402E0
3.837730115E0,7.837255001E-1,-2.743494034E0,2.008882999E0
3.842830115E0,6.757881641E-1,-2.752547264E0,2.060610771E0
3.847930115E0,4.189846516E-1,-2.801200867E0,2.034851789E0
3.853030115E0,2.245950699E-2,-2.797920227E0,2.077987909E0
3.858130115E0,-2.369034290E-1,-2.632034302E0,2.259596109E0
3.863230115E0,-2.836868763E-1,-2.661796570E0,2.625613213E0
3.868330115E0,-1.658792496E-1,-2.848149300E0,2.903115988E0
3.873430115E0,-2.370798588E-1,-2.989899635E0,3.150896788E0
3.878530115E0,-2.676239014E-1,-3.024604797E0,3.344941378E0
3.883630115E0,-2.393672466E-1,-3.028889656E0,3.365395308E0
3.888730115E0,-2.625625134E-1,-2.959892273E0,3.203674793E0
3.893830115E0,-1.990711689E-1,-2.775377274E0,2.942792416E0
3.898884646E0,-3.741865158E-1,-2.523953438E0,2.799848318E0
3.903930427E0,-7.441749573E-1,-2.416555405E0,2.518010855E0
3.909030427E0,-7.521476746E-1,-2.195460320E0,1.833441973E0
3.914105687E0,-7.874202728E-1,-1.875637054E0,1.368256569E0
3.919160635E0,-1.131032944E0,-1.548756599E0,1.225181580E0
3.924215583E0,-1.480347633E0,-1.234104156E0,1.213680983E0
3.929152094E0,-1.703869104E0,-9.585103989E-1,1.504127026E0
3.934201156E0,-1.792680979E0,-9.574937820E-1,1.772892952E0
3.939250219E0,-1.899347544E0,-8.750705719E-1,1.878131866E0
3.944299229E0,-1.924320459E0,-7.249917984E-1,2.099735260E0
3.949399229E0,-2.017308950E0,-5.262985229E-1,2.268415928E0
3.954462354E0,-2.034849405E0,-3.538107872E-1,2.481315613E0
3.959514542E0,-1.925283194E0,-2.597255707E-1,2.679719448E0
3.964566677E0,-1.750980616E0,-9.554338455E-2,2.758442879E0
3.969666677E0,-1.582808971E0,6.205797195E-2,2.910276890E0
3.974766677E0,-1.276826859E0,1.849260330E-1,3.082244873E0
3.979866677E0,-9.192662239E-1,3.398928642E-1,3.227004528E0
3.984966677E0,-6.830439568E-1,5.313901901E-1,3.335050106E0
3.990066677E0,-6.746001244E-1,7.063918114E-1,3.630656004E0
3.995143135E0,-8.480072021E-1,8.602485657E-1,3.982375860E0
4.000201781E0,-1.089836597E0,8.975954056E-1,4.244980812E0
4.005260375E0,-1.194382668E0,1.038553238E0,4.428343296E0
4.010342979E0,-1.199830055E0,1.248881340E0,4.572234631E0
4.015402823E0,-1.206197262E0,1.446717739E0,4.754572868E0
4.020462667E0,-1.365625858E0,1.636514187E0,4.885865211E0
4.025522510E0,-1.434134483E0,1.870625019E0,4.890015602E0
4.030444333E0,-1.442218304E0,2.191582203E0,5.000763893E0
4.035497250E0,-1.419105053E0,2.460270882E0,5.088981628E0
4.040550219E0,-1.378792763E0,2.705583572E0,5.140489101E0
4.045603135E0,-1.306242466E0,2.894219875E0,5.165294647E0
4.050702562E0,-1.209965229E0,3.084099293E0,5.149305344E0
4.055757823E0,-1.012403965E0,3.319042206E0,5.058761120E0
4.060813083E0,-7.990608215E-1,3.528002262E0,4.940959930E0
4.065868396E0,-6.411309242E-1,3.644363880E0,4.829370499E0
4.070960844E0,-4.091637135E-1,3.788101196E0,4.718870163E0
4.076017979E0,-2.564947605E-1,3.911206007E0,4.532910824E0
4.081075167E0,-2.409245968E-1,3.936991930E0,4.290464401E0
4.086132302E0,-3.102142811E-1,4.075572014E0,4.073018551E0
4.091232302E0,-3.977587223E-1,4.240681648E0,3.975695610E0
4.096332302E0,-4.177968502E-1,4.369716644E0,3.902915239E0
4.101432302E0,-4.328224659E-1,4.467376709E0,3.715793371E0
4.106532302E0,-4.866399765E-1,4.533354759E0,3.557667017E0
4.111632302E0,-4.697699547E-1,4.600934029E0,3.409053564E0
4.116698031E0,-4.925036430E-1,4.631365776E0,3.213041067E0
4.121760635E0,-5.117874146E-1,4.529050827E0,3.041149378E0
4.126823292E0,-5.274710655E-1,4.561889648E0,2.883839607E0
4.131736833E0,-4.150788784E-1,4.479805946E0,2.762552738E0
4.136791990E0,-2.653400898E-1,4.323172569E0,2.606410980E0
4.141847146E0,-5.964159966E-2,4.176645756E0,2.369913101E0
4.146902302E0,2.305870056E-1,3.977814198E0,2.043763399E0
4.151995062E0,4.999141693E-1,3.726779461E0,1.608464122E0
4.157052146E0,8.104133606E-1,3.264920712E0,1.137428284E0
4.162109229E0,1.119404793E0,2.568954468E0,5.918562412E-1
4.167166312E0,1.475140572E0,1.605734825E0,-1.140961647E-1
4.172266312E0,1.882743359E0,4.570775032E-1,-9.948182106E-1
4.177366312E0,2.347436428E0,-8.726625443E-1,-2.330164909E0
4.182466312E0,2.649783134E0,-2.240870476E0,-4.426671982E0
4.187566312E0,2.752450943E0,-3.630408287E0,-7.285770416E0
4.192666312E0,3.039585114E0,-5.235096931E0,-1.060437202E1
4.197732198E0,3.617042542E0,-7.138350487E0,-1.363070488E1
4.202794750E0,4.132456303E0,-8.543084145E0,-1.556834221E1
4.207857302E0,4.163409233E0,-9.216237068E0,-1.593785095E1
4.212928135E0,3.632575989E0,-8.961072922E0,-1.452539825E1
4.217991104E0,2.768609524E0,-7.770725250E0,-1.173737907E1
4.223054073E0,2.005521297E0,-6.054299355E0,-8.795634270E0
4.228117042E0,1.558787823E0,-4.187919617E0,-6.149527073E0
4.233186677E0,1.289425373E0,-2.462193489E0,-4.168712616E0
4.238249958E0,1.115123749E0,-1.019258499E0,-3.141720533E0
4.243313292E0,9.225869179E-1,3.381161690E-1,-2.459795952E0
4.248376573E0,8.173747063E-1,1.505805016E0,-1.713176966E0
4.253287979E0,6.796941757E-1,2.318014145E0,-8.958942890E-1
4.258343708E0,5.313558578E-1,2.990427017E0,-8.732628822E-2
4.263399385E0,5.154657364E-1,3.424023151E0,5.176231861E-1
4.268455115E0,7.561025620E-1,3.543203831E0,8.982801437E-1
4.273546208E0,1.171028137E0,3.477032185E0,1.227192163E0
4.278603708E0,1.630932808E0,3.272453785E0,1.310934305E0
4.283661260E0,2.021409988E0,2.809088707E0,1.109605074E0
4.288718760E0,2.490912914E0,2.047798157E0,8.323090076E-1
4.293818760E0,3.067392826E0,1.030889034E0,7.584192753E-1
4.298918760E0,3.696583748E0,5.842113495E-2,7.558140755E-1
4.304018760E0,4.372330189E0,-7.366933823E-1,5.621397495E-1
4.309118760E0,4.988425732E0,-1.513288498E0,2.886290550E-1
4.314218760E0,5.429755688E0,-2.185825348E0,-7.786011696E-2
4.319283760E0,5.519280910E0,-2.664011002E0,-4.834756851E-1
4.324346625E0,5.353383064E0,-3.316190720E0,-7.222435474E-1
4.329409594E0,5.114490986E0,-4.132546425E0,-7.935805321E-1
4.334479385E0,4.773982048E0,-4.964859009E0,-7.492420673E-1
4.339542615E0,4.389785767E0,-5.937606812E0,-4.443435669E-1
4.344605896E0,3.881735325E0,-7.074136734E0,-2.181172371E-2
4.349669125E0,3.246463299E0,-8.134650230E0,2.369384766E-1
4.354580740E0,2.643157005E0,-8.659677505E0,5.241723061E-1
4.359636417E0,2.172501564E0,-8.348405838E0,1.045461297E0
4.364692094E0,1.528533459E0,-7.110775948E0,1.623160839E0
4.369747771E0,7.792325020E-1,-5.037641525E0,2.072668552E0
4.374838969E0,-2.682924271E-2,-2.516089439E0,2.280419350E0
4.379896417E0,-8.172836304E-1,-1.434078217E-1,2.463822365E0
4.384953917E0,-1.716288805E0,1.669566154E0,2.971360207E0
4.390011417E0,-2.537000656E0,3.320499420E0,4.457909584E0
4.395058083E0,-3.011547565E0,4.905768394E0,6.456651688E0
4.400115010E0,-3.211664200E0,5.933999062E0,8.604932785E0
4.405171937E0,-3.626041651E0,6.387462616E0,9.732077599E0
4.410228865E0,-3.929868460E0,6.554007530E0,9.760672569E0
4.415328865E0,-4.114178181E0,6.443358421E0,9.647842407E0
4.420428865E0,-3.874334812E0,5.987915993E0,9.408638000E0
4.425528865E0,-3.394673109E0,5.406749725E0,8.995941162E0
4.430628865E0,-2.912193298E0,4.760850430E0,8.319286346E0
4.435728865E0,-2.390262842E0,3.982395649E0,7.646950245E0
4.440828865E0,-1.700924158E0,2.874714851E0,7.017483711E0
4.445898917E0,-1.065587282E0,1.575827122E0,6.389361382E0
4.450962354E0,-4.559645653E-1,-4.849243164E-2,5.926051140E0
4.456030583E0,2.719521523E-2,-1.835840225E0,5.595296860E0
4.461094281E0,1.830492020E-1,-3.753163338E0,5.045256138E0
4.466157927E0,-1.600241661E-2,-5.332055092E0,4.188839436E0
4.471221625E0,-3.625862598E-1,-6.372117996E0,3.029949665E0
4.476289125E0,-1.018405676E0,-6.840479851E0,1.695660353E0
4.481353031E0,-1.781843066E0,-6.580007553E0,8.771662712E-1
4.486416885E0,-2.532406330E0,-5.863918304E0,5.423870683E-1
4.491480740E0,-3.082318068E0,-4.936038971E0,5.338538289E-1
4.496390427E0,-3.411654234E0,-3.834415436E0,6.852611303E-1
4.501446573E0,-3.609950781E0,-2.816037178E0,9.145604968E-1
4.506502771E0,-3.795784235E0,-2.085806847E0,1.024741769E0
4.511558969E0,-3.881466150E0,-1.561118126E0,8.891876936E-1
4.516658969E0,-3.818147421E0,-1.116669655E0,4.196470976E-1
4.521758969E0,-3.519946098E0,-7.091541290E-1,-2.947063446E-1
4.526858969E0,-3.068930149E0,-3.098955154E-1,-1.150377750E0
4.531958969E0,-2.465761185E0,4.751682281E-2,-2.024678230E0
4.537058969E0,-1.682650208E0,2.863588333E-1,-2.742399454E0
4.542126833E0,-8.360643387E-1,4.682550430E-1,-3.150709867E0
4.547188656E0,-3.697657585E-2,5.736293793E-1,-3.177809477E0
4.552250531E0,5.700964928E-1,6.880245209E-1,-2.927721739E0
4.557166312E0,1.006959677E0,7.337894440E-1,-2.382135630E0
4.562220844E0,1.256755352E0,8.074531555E-1,-1.692139149E0
4.567275375E0,1.376115799E0,8.941011429E-1,-9.112238884E-1
4.572329906E0,1.317871809E0,9.747467041E-1,-2.388383001E-1
4.577424594E0,1.251131296E0,1.136008263E0,2.256382704E-1
4.582481156E0,1.233147621E0,1.205631256E0,5.748547912E-1
4.587537667E0,1.263605118E0,1.207662582E0,6.984735131E-1
4.592594281E0,1.374908209E0,1.113274574E0,6.254528761E-1
4.597682875E0,1.369697809E0,9.510183334E-1,4.367678761E-1
4.602741052E0,1.280024290E0,9.214897156E-1,3.056760132E-1
4.607799281E0,1.158468962E0,1.024616241E0,-2.094733715E-2
4.612857406E0,1.086328983E0,1.193406105E0,-3.078721464E-1
4.617957406E0,1.106572628E0,1.293983459E0,-5.932878256E-1
4.623057406E0,1.118143320E0,1.302470207E0,-7.386832237E-1
4.628157406E0,1.049233437E0,1.281174660E0,-8.122123480E-1
4.633257406E0,9.098372459E-1,1.196759224E0,-8.295310736E-1
4.638357406E0,7.196843624E-1,1.135510445E0,-8.064987659E-1
4.643420948E0,5.508785248E-1,1.035261154E0,-6.300213337E-1
4.648484385E0,3.989369869E-1,8.865194321E-1,-4.119033217E-1
4.653547823E0,1.111609936E-1,7.945966721E-1,-1.916108429E-1
4.658576677E0,-1.922347546E-1,6.829652786E-1,-8.497276902E-2
4.663638344E0,-2.335321903E-1,6.473131180E-1,-8.308133483E-2
4.668700062E0,-3.340280056E-1,6.156167984E-1,-1.331747472E-1
4.673761781E0,-6.084427834E-1,6.356363297E-1,-2.305237353E-1
4.678717250E0,-8.647083044E-1,6.692132950E-1,-3.071055114E-1
4.683773656E0,-1.126506567E0,6.971254349E-1,-2.973585427E-1
4.688830010E0,-1.431763172E0,7.768573761E-1,-2.387398481E-1
4.693886417E0,-1.646008492E0,7.888803482E-1,-1.550364494E-1
4.698975583E0,-1.778839231E0,6.901912689E-1,-1.563072205E-1
4.704033656E0,-1.815936923E0,6.054182053E-1,-1.639414430E-1
4.709091677E0,-1.838847280E0,5.297098160E-1,-2.351915836E-1
4.714149698E0,-1.776149392E0,5.347576141E-1,-3.405473828E-1
4.719249698E0,-1.676035047E0,6.012878418E-1,-4.939429760E-1
4.724349698E0,-1.510108948E0,7.101421356E-1,-6.129578352E-1
4.729449698E0,-1.350046635E0,8.087472916E-1,-6.926169395E-1
4.734549698E0,-1.143041849E0,7.967061996E-1,-8.767659664E-1
4.739649698E0,-8.653434515E-1,7.840957642E-1,-1.012511730E0
4.744713552E0,-5.693995953E-1,7.422266006E-1,-1.205580115E0
4.749776885E0,-2.216761112E-1,6.517944336E-1,-1.514731169E0
4.754840219E0,8.677005768E-2,5.797023773E-1,-1.858769894E0
4.759908708E0,2.796626091E-1,6.024580002E-1,-2.218552351E0
4.764972302E0,4.292490482E-1,6.149072647E-1,-2.574321747E0
4.770035896E0,6.119921207E-1,5.884828568E-1,-2.977757692E0
4.775099490E0,7.318303585E-1,5.904283524E-1,-3.307384968E0
4.780010010E0,8.607721329E-1,5.163898468E-1,-3.535370350E0
4.785066000E0,9.307155609E-1,4.280719757E-1,-3.663412094E0
4.790121937E0,1.033106089E0,3.790607452E-1,-3.769422531E0
4.795177875E0,1.173139572E0,2.454214096E-1,-3.828567743E0
4.800268344E0,1.259692192E0,1.659498215E-1,-3.826737881E0
4.805326000E0,1.287636757E0,7.344913483E-2,-3.812410116E0
4.810383708E0,1.108046770E0,-1.760816574E-1,-3.696329117E0
4.815441365E0,6.972224712E-1,-5.205898285E-1,-3.523099422E0
4.820541365E0,9.363341331E-2,-9.363279343E-1,-3.198303223E0
4.825641365E0,-6.301188469E-1,-1.332236290E0,-2.722542763E0
4.830741365E0,-1.387725949E0,-1.684475899E0,-2.230224371E0
4.835841365E0,-2.159729481E0,-2.050424576E0,-1.826680660E0
4.840941365E0,-2.835347176E0,-2.439387321E0,-1.430540681E0
4.846005948E0,-3.274612427E0,-2.779252052E0,-1.114099503E0
4.851069021E0,-3.596693993E0,-3.113044739E0,-9.975528717E-1
4.856132094E0,-3.863273382E0,-3.263866425E0,-1.081882238E0
4.861201417E0,-3.987544537E0,-3.332353592E0,-1.391944051E0
4.866264802E0,-4.031207561E0,-3.333013535E0,-1.900117397E0
4.871328135E0,-4.008338451E0,-3.318626404E0,-2.449396610E0
4.876391521E0,-3.923604488E0,-3.322692871E0,-2.954032183E0
4.881302771E0,-3.748407602E0,-3.349872589E0,-3.404033661E0
4.886358552E0,-3.555206299E0,-3.491255760E0,-3.871367693E0
4.891414281E0,-3.373536110E0,-3.684494019E0,-4.144107819E0
4.896470062E0,-3.166229486E0,-3.881705284E0,-4.326002121E0
4.901570062E0,-3.015320539E0,-4.144796371E0,-4.434061050E0
4.906670062E0,-2.931181192E0,-4.215106010E0,-4.451277256E0
4.911770062E0,-2.890280962E0,-4.212087631E0,-4.346862316E0
4.916870062E0,-2.768547773E0,-4.116433144E0,-4.186195850E0
4.921970062E0,-2.551958084E0,-3.975866318E0,-4.001379967E0
4.927038708E0,-2.360149145E0,-3.704335213E0,-3.849459648E0
4.932100219E0,-2.072679996E0,-3.612773895E0,-3.706878185E0
4.937161729E0,-1.684350014E0,-3.820667267E0,-3.698869705E0
4.942235687E0,-1.276739955E0,-4.390154839E0,-3.754185200E0
4.947297823E0,-9.508545399E-1,-4.929045677E0,-3.648331642E0
4.952359958E0,-7.359826565E-1,-5.308582306E0,-3.452832222E0
4.957422094E0,-6.176936626E-1,-5.395231247E0,-3.114895105E0
4.962494177E0,-4.858210087E-1,-5.055619240E0,-2.796990871E0
4.967556833E0,-4.311251640E-1,-4.132796288E0,-2.418515444E0
4.972619437E0,-1.327419281E-2,-2.962523460E0,-2.180980206E0
4.977682042E0,5.418741703E-1,-2.540363312E0,-2.065481186E0
4.982752615E0,9.506359100E-1,-2.430555344E0,-1.863458157E0
4.987815635E0,1.159585714E0,-1.896659851E0,-1.251920104E0
4.992878656E0,1.427235126E0,-1.566200256E0,-3.551737368E-1
4.997941729E0,1.662566662E0,-1.348789215E0,8.059049845E-1
5.003011104E0,1.808984995E0,-9.482297897E-1,2.008849621E0
5.008074437E0,2.035224199E0,-7.762660980E-1,2.895672321E0
5.013137823E0,2.333328247E0,-7.989196777E-1,3.588590860E0
5.018201156E0,2.681647062E0,-9.770822525E-1,3.937505245E0
5.023269646E0,3.025362253E0,-1.108879089E0,3.932289839E0
5.028333240E0,3.587510109E0,-1.222019196E0,3.452239037E0
5.033396885E0,4.360534668E0,-1.583500862E0,2.894043684E0
5.038460479E0,5.157895088E0,-2.082832336E0,2.262029171E0
5.043528135E0,5.920666218E0,-2.600639343E0,1.608350277E0
5.048591990E0,6.894689083E0,-3.304997444E0,1.281234503E0
5.053655792E0,7.951261520E0,-4.101023674E0,1.159887552E0
5.058719594E0,8.649347305E0,-4.621778488E0,1.119186759E0
5.063786573E0,8.883955002E0,-4.806661606E0,1.331434369E0
5.068850531E0,8.552112579E0,-4.584928513E0,1.595253110E0
5.073914542E0,7.897369385E0,-3.952348709E0,1.757653356E0
5.078978500E0,6.954068184E0,-3.067027092E0,1.838543892E0
5.084045167E0,5.661679268E0,-2.144119263E0,1.719179988E0
5.089109281E0,4.328350544E0,-1.288491249E0,1.596615314E0
5.094173396E0,3.161339045E0,-6.479244232E-1,1.562179089E0
5.099237510E0,2.228337526E0,-1.264123917E-1,1.587835312E0
5.104303708E0,1.529800415E0,5.622291565E-2,1.717182875E0
5.109367927E0,8.510093689E-1,-2.750873566E-2,1.925646067E0
5.114432146E0,2.171952724E-1,-1.473560333E-1,2.041132927E0
5.119496365E0,-3.114366531E-2,-3.748102188E-1,2.198024035E0
5.124562198E0,-1.814193726E-1,-5.234260559E-1,2.559384108E0
5.129626521E0,-6.030573845E-1,-7.276754379E-1,3.019807816E0
5.134690792E0,-1.240965366E0,-1.040126801E0,3.667225599E0
5.139755115E0,-2.178665876E0,-1.431150436E0,4.458477497E0
5.144820740E0,-3.230119705E0,-1.712565422E0,4.647448540E0
5.149885167E0,-4.043581009E0,-1.807003021E0,4.675236702E0
5.154949490E0,-4.672068119E0,-1.953358650E0,4.694196701E0
5.160013865E0,-5.348314285E0,-1.998313904E0,4.553061008E0
5.165079281E0,-5.759128571E0,-2.028401375E0,4.666872025E0
5.170143708E0,-5.866466999E0,-2.019755363E0,4.658084393E0
5.175208187E0,-5.922179222E0,-1.771584511E0,4.490648746E0
5.180272562E0,-5.782783031E0,-1.465966225E0,4.298434734E0
5.185337771E0,-5.397809982E0,-1.088549614E0,3.992703438E0
5.190402250E0,-4.847076416E0,-6.202831268E-1,3.684799433E0
5.195466677E0,-4.249439716E0,-3.809928894E-3,3.566560984E0
5.200531156E0,-3.671054602E0,6.606826782E-1,3.480273008E0
5.205596312E0,-3.043744564E0,1.297410011E0,3.392962933E0
5.210660792E0,-2.443189383E0,1.888019085E0,3.339020729E0
5.215725323E0,-1.958520055E0,2.433400631E0,3.463682175E0
5.220789802E0,-1.677570105E0,2.906011581E0,3.812279701E0
5.225854854E0,-1.332691908E0,3.244794846E0,4.268770218E0
5.230919385E0,-9.950585365E-1,3.560714245E0,4.646556854E0
5.235983917E0,-8.595995903E-1,3.887649298E0,4.960975647E0
5.241048448E0,-9.627594948E-1,4.259443283E0,5.275281429E0
5.246113396E0,-1.154247761E0,4.547100067E0,5.509453297E0
5.251177927E0,-1.302897215E0,4.645545959E0,5.732080460E0
5.256242510E0,-1.507867575E0,4.698089600E0,5.959163666E0
5.261307042E0,-1.749072313E0,4.780868053E0,6.139392853E0
5.266371937E0,-1.982689023E0,4.726018429E0,6.221370697E0
5.271436521E0,-2.122050762E0,4.758018494E0,6.474090099E0
5.276501052E0,-2.165738106E0,4.934071541E0,6.707235336E0
5.281565635E0,-2.227701187E0,5.100578308E0,6.797688484E0
5.286591104E0,-2.226599216E0,5.232934952E0,6.899624348E0
5.291653656E0,-2.162641048E0,5.426982880E0,6.921645641E0
5.296716260E0,-2.007565498E0,5.586268425E0,6.788003445E0
5.301778865E0,-1.761942148E0,5.672060013E0,6.618709087E0
5.306849594E0,-1.570039272E0,5.660212994E0,6.365742207E0
5.311912562E0,-1.275193930E0,5.526232243E0,6.076973915E0
5.316975583E0,-9.601023197E-1,5.456436634E0,5.813941002E0
5.322038604E0,-7.162222862E-1,5.479238510E0,5.561917782E0
5.326943604E0,-6.355686188E-1,5.468633652E0,5.341544151E0
5.331848604E0,-5.256986618E-1,5.426462650E0,5.102308273E0
5.336753604E0,-4.055674076E-1,5.271712780E0,4.853176117E0
5.341658604E0,-2.800571918E-1,5.095643997E0,4.574043751E0
5.346758604E0,-1.290247440E-1,4.919527054E0,4.179743290E0
5.351858604E0,4.120421410E-2,4.726334572E0,3.711933613E0
5.356915062E0,1.584477425E-1,4.495917320E0,3.057151318E0
5.361964750E0,3.612151146E-1,4.213695049E0,2.368528366E0
5.367064750E0,7.252621651E-1,3.707338810E0,1.449347258E0
5.372164750E0,1.300921917E0,2.917857170E0,3.495967388E-1
5.377264750E0,1.823532581E0,1.906497955E0,-9.194161892E-1
5.382364750E0,2.168178558E0,7.297415733E-1,-2.589403152E0
5.387464750E0,2.278800488E0,-6.465282440E-1,-5.516792774E0
5.392564750E0,2.394212484E0,-2.979135513E0,-1.136384773E1
5.397664750E0,3.165221930E0,-6.801604271E0,-1.959436035E1
5.402764750E0,5.656504631E0,-1.099300098E1,-2.367390823E1
5.407864750E0,7.834799767E0,-1.392244911E1,-2.242177200E1
5.412964750E0,8.350111961E0,-1.548773289E1,-1.952441597E1
5.418064750E0,7.280996323E0,-1.519481182E1,-1.659599304E1
5.423164750E0,4.922059059E0,-1.295327854E1,-1.371690178E1
5.428264750E0,2.653643847E0,-9.959438324E0,-1.100991058E1
5.433340844E0,1.206290245E0,-7.298038483E0,-8.671940804E0
5.438398969E0,4.494175911E-1,-4.590147972E0,-6.819277287E0
5.443457094E0,1.328043938E-1,-2.054578781E0,-5.115428925E0
5.448541000E0,3.381631374E-1,-2.054634094E-1,-2.947731256E0
5.453600427E0,1.907742023E-1,1.424982548E0,-2.751514912E-1
5.458659906E0,-1.292455196E-1,2.749701500E0,2.198160172E0
5.463719333E0,-4.061913490E-2,3.614072323E0,3.813608646E0
5.468819333E0,3.262109756E-1,4.195764065E0,4.303671837E0
5.473919333E0,1.035375595E0,4.249221325E0,3.629050732E0
5.479019333E0,1.565468073E0,3.761999607E0,2.650903225E0
5.484119333E0,2.071396589E0,2.583477974E0,2.066992283E0
5.489215687E0,2.987363577E0,7.077221870E-1,1.574670792E0
5.494280115E0,3.949902534E0,-1.315651894E0,1.206441402E0
5.499344594E0,4.741157532E0,-3.505683899E0,1.223558426E0
5.504409021E0,5.169558525E0,-5.784824371E0,1.413799047E0
5.509474177E0,5.517705917E0,-8.256833076E0,1.937431455E0
5.514538656E0,6.285607815E0,-1.044647980E1,3.070508003E0
5.519603135E0,7.389032364E0,-1.185570621E1,4.485700607E0
5.524667615E0,8.715961456E0,-1.266666889E1,5.417225361E0
5.529732719E0,8.828263283E0,-1.206284046E1,4.876764297E0
5.534797250E0,7.679718971E0,-1.024267864E1,3.407168388E0
5.539861729E0,5.261780739E0,-7.299021721E0,2.033396244E0
5.544926260E0,2.321557283E0,-3.912639618E0,1.277535915E0
5.549834021E0,-1.886439323E-1,-9.798498154E-1,1.191755533E0
5.554890687E0,-1.805871248E0,1.409280300E0,2.507126331E0
5.559947406E0,-2.616186857E0,3.350205421E0,5.101695061E0
5.565004073E0,-2.883587360E0,4.791712284E0,7.642004967E0
5.570104073E0,-3.078885555E0,5.869673729E0,9.667768478E0
5.575204073E0,-3.370936394E0,6.380074501E0,1.081051064E1
5.580304073E0,-3.521238565E0,6.444075584E0,1.091887760E1
5.585404073E0,-3.602690220E0,6.186603546E0,1.086724663E1
5.590504073E0,-3.573064804E0,5.761059761E0,1.084052563E1
5.595570740E0,-3.164190292E0,5.196074486E0,1.060944557E1
5.600632979E0,-2.424391270E0,4.649003506E0,1.007932472E1
5.605695271E0,-1.734025836E0,4.161366940E0,9.170145035E0
5.610767042E0,-1.157966137E0,3.525749207E0,8.093852997E0
5.615829750E0,-6.650242805E-1,2.745333672E0,6.996524334E0
5.620892458E0,-3.513731956E-1,1.857624531E0,6.014377594E0
5.625955219E0,-1.351308823E-1,6.132955551E-1,5.155895233E0
5.630868292E0,-1.639027596E-1,-6.679964066E-1,4.457177639E0
5.635923500E0,-2.679963112E-1,-2.075471878E0,3.761698723E0
5.640978760E0,-5.287618637E-1,-3.366113663E0,3.028716087E0
5.646034021E0,-8.777115345E-1,-4.257536888E0,2.486327887E0
5.651126573E0,-1.136815310E0,-4.658769608E0,2.269433498E0
5.656183760E0,-1.310652137E0,-4.641841888E0,2.116002798E0
5.661240896E0,-1.446686625E0,-4.369195938E0,2.062877655E0
5.666297979E0,-1.592641711E0,-3.835811615E0,2.036127090E0
5.671384854E0,-1.815367222E0,-3.371375084E0,1.549091101E0
5.676443500E0,-2.291308880E0,-3.156889915E0,1.205900908E-1
5.681502146E0,-2.833406210E0,-2.923421860E0,-1.704216480E0
5.686560792E0,-3.111485720E0,-2.445434570E0,-3.128241539E0
5.691660792E0,-3.129614115E0,-1.822757721E0,-3.914093733E0
5.696760792E0,-2.881214619E0,-1.246077538E0,-3.993799210E0
5.701860792E0,-2.397875071E0,-8.488731384E-1,-3.789004326E0
5.706960792E0,-1.740854740E0,-5.021057129E-1,-3.440649986E0
5.712059490E0,-1.072989345E0,-1.587200165E-1,-3.001396894E0
5.717123292E0,-4.532203674E-1,9.876441956E-2,-2.498739004E0
5.722187094E0,1.652884483E-2,3.270139694E-1,-1.723379493E0
5.727250896E0,3.447842598E-1,4.107427597E-1,-1.040133595E0
5.732160792E0,3.999807835E-1,4.019098282E-1,-6.587297916E-1
5.737216937E0,3.611319065E-1,4.975948334E-1,-3.965611756E-1
5.742273031E0,1.935536861E-1,6.782512665E-1,-1.924979538E-1
5.747329125E0,-1.195168495E-2,8.961076736E-1,6.560763810E-3
5.752419073E0,-1.879107952E-1,1.084506989E0,2.195315957E-1
5.757476937E0,-4.545674324E-1,1.281736374E0,5.474087596E-1
5.762534750E0,-5.678808689E-1,1.416182518E0,8.780722618E-1
5.767592562E0,-3.614780903E-1,1.416035652E0,1.113884330E0
5.772677406E0,-8.100819588E-2,1.400682449E0,1.362223387E0
5.777736625E0,1.522526741E-1,1.388842583E0,1.218770623E0
5.782795740E0,5.720827579E-1,1.351672173E0,6.395088434E-1
5.787854906E0,8.432116508E-1,1.365723610E0,-1.142114401E-3
5.792954906E0,1.038134813E0,1.469394684E0,-4.828480482E-1
5.798054906E0,1.324764729E0,1.605342388E0,-7.576830387E-1
5.803154906E0,1.574587345E0,1.745028973E0,-8.454428911E-1
5.808254906E0,1.840902567E0,1.816848278E0,-8.716226220E-1
5.813352094E0,2.042087078E0,1.820757389E0,-8.374622464E-1
5.818416365E0,2.125055313E0,1.799687862E0,-7.630118132E-1
5.823480583E0,2.089968920E0,1.801417828E0,-6.684492230E-1
5.828544802E0,1.865212917E0,1.840178967E0,-4.635114074E-1
5.833610531E0,1.422454119E0,1.853698254E0,-3.495473266E-1
5.838674854E0,9.395792484E-1,1.832543850E0,-3.310917914E-1
5.843739177E0,3.885729313E-1,1.700394154E0,-3.687566817E-1
5.848803552E0,-1.394035816E-1,1.476598740E0,-4.278822839E-1
5.853711833E0,-5.771588087E-1,1.276336670E0,-5.629126430E-1
5.858768344E0,-9.013676643E-1,1.070516586E0,-7.619959116E-1
5.863824906E0,-1.102267981E0,9.024934769E-1,-8.981864452E-1
5.868881417E0,-1.299369335E0,6.623888016E-1,-9.562439919E-1
5.873970115E0,-1.416121364E0,4.460048676E-1,-1.017276406E0
5.879028292E0,-1.414066434E0,3.396520615E-1,-1.022637010E0
5.884086417E0,-1.317558050E0,1.900844574E-1,-1.101869941E0
5.889144594E0,-1.256068230E0,8.814048767E-2,-1.178777456E0
5.894244594E0,-1.210545063E0,4.322814941E-2,-1.325771451E0
5.899344594E0,-1.185302496E0,2.187252045E-2,-1.524062634E0
5.904444594E0,-1.275952816E0,8.606433868E-2,-1.640774965E0
5.909544594E0,-1.458022714E0,1.830587387E-1,-1.753410935E0
5.914644594E0,-1.625456691E0,2.697763443E-1,-1.896571875E0
5.919708135E0,-1.853981256E0,4.134578705E-1,-2.017101288E0
5.924771521E0,-2.014070988E0,4.993934631E-1,-2.076384783E0
5.929834958E0,-1.995694876E0,4.513111115E-1,-2.111888885E0
5.934903187E0,-1.827792764E0,2.791175842E-1,-2.093977928E0
5.939966833E0,-1.544201970E0,4.049301147E-2,-2.112693071E0
5.945030531E0,-1.169443130E0,-1.593046188E-1,-2.244187117E0
5.950094177E0,-7.898463011E-1,-3.347082138E-1,-2.507610559E0
5.955004490E0,-4.765059948E-1,-4.852495193E-1,-2.901413441E0
5.960060531E0,-2.781996727E-1,-6.356534958E-1,-3.351495266E0
5.965116521E0,-2.378420830E-1,-7.903976440E-1,-3.736804247E0
5.970172510E0,-3.459026814E-1,-8.441915512E-1,-3.970829010E0
5.975262771E0,-6.363296509E-1,-9.550065994E-1,-4.010074615E0
5.980320531E0,-1.047087312E0,-1.251676559E0,-3.877353907E0
5.985378187E0,-1.535594463E0,-1.580968857E0,-3.615438461E0
5.990435948E0,-2.082581282E0,-1.961763382E0,-3.338527203E0
5.995535948E0,-2.568060637E0,-2.389083862E0,-3.056201935E0
6.000635948E0,-2.938592672E0,-2.800481796E0,-2.673170090E0
6.005735948E0,-3.250783920E0,-3.085888863E0,-2.228707075E0
6.010835948E0,-3.412667990E0,-3.269323349E0,-1.848634005E0
6.015935948E0,-3.409120321E0,-3.465728760E0,-1.510488391E0
6.021000375E0,-3.244385481E0,-3.541289330E0,-1.349666595E0
6.026063448E0,-2.966301203E0,-3.658997536E0,-1.396021128E0
6.031126521E0,-2.631975174E0,-3.737483978E0,-1.616347671E0
6.036195792E0,-2.169768095E0,-3.762539864E0,-1.991670847E0
6.041259177E0,-1.623447657E0,-3.739274025E0,-2.464756489E0
6.046322562E0,-1.242713332E0,-3.749426842E0,-2.930661678E0
6.051385948E0,-1.003883243E0,-3.668717384E0,-3.384428024E0
6.056454281E0,-8.926750422E-1,-3.626312256E0,-3.600593090E0
6.061517927E0,-8.424972296E-1,-3.746368408E0,-3.707232237E0
6.066581521E0,-8.346978426E-1,-3.932746887E0,-3.788551092E0
6.071645219E0,-8.646968603E-1,-4.156276703E0,-3.742128372E0
6.076555583E0,-9.428480864E-1,-4.387963295E0,-3.628136635E0
6.081611573E0,-1.087647080E0,-4.560472488E0,-3.488845825E0
6.086667615E0,-1.251756191E0,-4.750290871E0,-3.299114704E0
6.091723552E0,-1.401719570E0,-4.794656754E0,-3.015157223E0
6.096823552E0,-1.446835756E0,-4.674639702E0,-2.627163172E0
6.101923552E0,-1.305912495E0,-4.572336197E0,-2.393888474E0
6.107023552E0,-1.007103801E0,-4.717330933E0,-2.464213610E0
6.112123552E0,-5.352985859E-1,-5.176215172E0,-2.871754169E0
6.117223552E0,5.225825310E-2,-5.609021187E0,-3.290618658E0
6.122291729E0,6.016659737E-1,-5.595265388E0,-3.538946152E0
6.127353448E0,9.495329857E-1,-5.221907616E0,-3.688205719E0
6.132415115E0,1.185864449E0,-4.394134521E0,-3.862189293E0
6.137488448E0,1.266941547E0,-3.222849846E0,-4.064963818E0
6.142550687E0,1.158932924E0,-1.818844795E0,-4.224419594E0
6.147612927E0,1.387965918E0,-5.987501144E-1,-4.344824791E0
6.152675219E0,1.832870007E0,-5.057621002E-2,-3.989070415E0
6.157589802E0,2.205075264E0,3.611545563E-1,-3.063515425E0
6.162644698E0,2.618611574E0,7.993087769E-1,-1.991342545E0
6.167699594E0,2.892261505E0,1.047517776E0,-8.495309949E-1
6.172754490E0,2.994163036E0,1.158201218E0,5.845143795E-1
6.177848031E0,2.702322960E0,1.404144287E0,2.002276659E0
6.182904854E0,2.279035330E0,1.536841869E0,3.152855873E0
6.187961729E0,2.037847519E0,1.389670372E0,3.828299999E0
6.193018552E0,2.228558302E0,1.011289597E0,4.260870934E0
6.198106312E0,2.673945665E0,5.266056061E-1,4.302408218E0
6.203164698E0,3.229807615E0,7.465839386E-2,4.180109501E0
6.208223135E0,3.770576000E0,-3.876695633E-1,3.889896393E0
6.213281521E0,4.232729435E0,-7.647829056E-1,3.393063545E0
6.218381521E0,4.562286377E0,-1.147906303E0,2.557090521E0
6.223481521E0,4.666125298E0,-1.656931877E0,1.199568868E0
6.228581521E0,4.546738625E0,-2.143959045E0,-1.955605745E-1
6.233681521E0,4.359753609E0,-2.647859573E0,-1.292704582E0
6.238780896E0,4.054512978E0,-2.949404716E0,-1.919222951E0
6.243844490E0,3.729394436E0,-3.116298676E0,-1.803167343E0
6.248908135E0,3.464497089E0,-3.144470215E0,-9.392721653E-1
6.253971729E0,3.192668676E0,-2.952847481E0,3.606569767E-1
6.259071729E0,2.967097044E0,-2.761685371E0,1.493891716E0
6.264144802E0,2.674515486E0,-2.694471359E0,2.310300112E0
6.269210583E0,2.153787851E0,-2.679145813E0,2.686776876E0
6.274276417E0,1.650836945E0,-2.557517052E0,2.715365410E0
6.279181417E0,1.400023937E0,-2.471038818E0,2.399140358E0
6.284196469E0,7.969334126E-1,-2.657089233E0,2.134978771E0
6.289252146E0,4.388885498E-1,-3.033182144E0,2.134092808E0
6.294307875E0,3.945858479E-1,-3.115526199E0,2.262260914E0
6.299399021E0,3.436965942E-1,-2.986853600E0,2.603750706E0
6.304456521E0,6.570649147E-2,-3.091983795E0,3.342611313E0
6.309514021E0,-3.025965691E-1,-2.924198151E0,4.031776905E0
6.314571521E0,-9.804699421E-1,-2.646121979E0,4.546112061E0
6.319671521E0,-2.220052242E0,-2.520246506E0,4.678986549E0
6.324771521E0,-3.329587221E0,-2.218464851E0,4.517659187E0
6.329871521E0,-3.700607777E0,-1.782894135E0,4.300789833E0
6.334971521E0,-3.844948292E0,-1.414237976E0,3.909564734E0
6.340071521E0,-4.063971996E0,-1.140955925E0,3.641093254E0
6.345136365E0,-3.859619141E0,-7.610597610E-1,3.757304668E0
6.350199333E0,-3.567034006E0,-2.699851990E-1,3.804226875E0
6.355262146E0,-3.439698458E0,1.845693588E-1,3.704684973E0
6.360331990E0,-3.229287148E0,6.227216721E-1,3.777606249E0
6.365395219E0,-2.865306377E0,1.213300228E0,3.967380285E0
6.370458448E0,-2.637350082E0,1.660380840E0,4.156490803E0
6.375521677E0,-2.542280197E0,2.122714520E0,4.424392700E0
6.380433292E0,-2.556594372E0,2.483044624E0,4.782154083E0
6.385488969E0,-2.585379124E0,2.810565472E0,5.210030556E0
6.390544646E0,-2.690651894E0,3.068799496E0,5.572110176E0
6.395600271E0,-2.757837772E0,3.257667542E0,5.888166428E0
6.400700271E0,-2.821217060E0,3.505778313E0,6.163724899E0
6.405800271E0,-2.890945911E0,3.716887236E0,6.365922451E0
6.410900271E0,-2.972164631E0,3.813994646E0,6.586346149E0
6.416000271E0,-2.955215931E0,3.959339857E0,6.777658939E0
6.420950010E0,-2.887505531E0,4.295754433E0,6.969855785E0
6.426007510E0,-2.860217094E0,4.640699387E0,7.043920994E0
6.431064906E0,-2.895355701E0,4.927135468E0,7.058922291E0
6.436122406E0,-2.891070366E0,5.202915192E0,6.987318039E0
6.441222406E0,-2.807925701E0,5.583086967E0,6.987579346E0
6.446322406E0,-2.758720875E0,5.919613838E0,6.926854134E0
6.451422406E0,-2.665545940E0,6.050472260E0,6.728961945E0
6.456522406E0,-2.509181023E0,6.081271172E0,6.365149498E0
6.461622406E0,-2.366797447E0,6.093088150E0,5.811555862E0
6.466687406E0,-2.287395477E0,6.118603706E0,5.274070740E0
6.471750323E0,-2.190557480E0,6.095460892E0,4.833128452E0
6.476813135E0,-1.966348886E0,6.224615097E0,4.488212585E0
6.481725844E0,-1.691624403E0,6.246354103E0,4.092597961E0
6.486781208E0,-1.313424110E0,6.244813919E0,3.790009260E0
6.491836573E0,-9.616150856E-1,6.199430466E0,3.548240900E0
6.496891937E0,-5.933308601E-1,6.000360966E0,3.184529543E0
6.501984073E0,-1.758916378E-1,5.757937431E0,2.678158283E0
6.507041312E0,3.029201031E-1,5.307983398E0,1.972160339E0
6.512098500E0,6.642038822E-1,4.750400543E0,1.146939993E0
6.517155687E0,9.444060326E-1,4.017119884E0,3.218452930E-1
6.522255687E0,1.348622322E0,3.141442776E0,-6.617989540E-1
6.527355687E0,1.609369755E0,2.035849571E0,-2.025482893E0
6.532455687E0,1.667055130E0,5.419287682E-1,-4.070699215E0
6.537555687E0,1.718017101E0,-1.355407715E0,-7.667837143E0
6.542655687E0,2.256965637E0,-4.002931595E0,-1.301723957E1
6.547721260E0,3.768297911E0,-7.404088020E0,-1.750562096E1
6.552783917E0,5.927902222E0,-1.008299828E1,-1.805119705E1
6.557846625E0,7.124560356E0,-1.102685165E1,-1.589951992E1
6.562917042E0,6.870275974E0,-1.097253132E1,-1.375223637E1
6.567980115E0,5.401490211E0,-1.015436554E1,-1.234542465E1
6.573043135E0,3.463906050E0,-8.792568207E0,-1.097856903E1
6.578106208E0,1.828018665E0,-7.144986153E0,-9.361868858E0
6.583175479E0,1.168798208E0,-5.746087074E0,-7.564331055E0
6.588238865E0,8.951189518E-1,-4.360171318E0,-5.766394615E0
6.593302250E0,3.219251633E-1,-2.498335838E0,-4.320131779E0
6.598365583E0,-4.335563183E-1,-4.261293411E-1,-2.627770662E0
6.603434021E0,-1.019880295E0,1.410696030E0,-2.335453033E-1
6.608497667E0,-1.563076258E0,3.141230106E0,2.118571758E0
6.613561260E0,-2.035977125E0,4.668955803E0,3.166470766E0
6.618624906E0,-2.356580734E0,5.847394943E0,2.924199581E0
6.623692458E0,-2.398317337E0,6.609138489E0,1.833012462E0
6.628756312E0,-2.069298983E0,6.842302322E0,8.999698162E-1
6.633820115E0,-1.080554962E0,6.095765114E0,5.673515797E-1
6.638883917E0,6.866073608E-2,4.703837395E0,2.727725506E-1
6.643950948E0,8.905224800E-1,3.044249535E0,1.763489246E-1
6.649014958E0,1.439663887E0,9.973702431E-1,5.105183125E-1
6.654078917E0,2.287438869E0,-1.421880722E0,1.425290823E0
6.659142875E0,3.561992168E0,-4.169652939E0,3.147595882E0
6.664209490E0,5.039871693E0,-7.010046959E0,5.315021038E0
6.669273604E0,6.637097836E0,-9.850286484E0,7.310557365E0
6.674337719E0,8.500694275E0,-1.287607765E1,8.464353561E0
6.679401833E0,1.062528992E1,-1.604541779E1,8.625532150E0
6.684467927E0,1.215841293E1,-1.843841553E1,7.878265381E0
6.689532146E0,1.183255100E1,-1.857294464E1,7.057101727E0
6.694596365E0,8.752412796E0,-1.497665215E1,4.117321968E0
6.699660531E0,4.410710335E0,-9.798612595E0,-3.409365654E0
6.704726417E0,1.378866673E0,-5.483518600E0,-8.047035217E0
6.709790740E0,-4.592649937E-1,-2.358799934E0,-6.991580009E0
6.714855010E0,-1.643106222E0,2.414855957E-1,-2.411885738E0
6.719919333E0,-1.546379328E0,2.063239098E0,2.254409313E0
6.724984906E0,-1.106587172E0,3.427510262E0,6.014434338E0
6.730049333E0,-1.310748816E0,4.573487759E0,8.988152504E0
6.735113656E0,-2.112965107E0,5.276259422E0,1.081870174E1
6.740177979E0,-3.078289986E0,5.540390015E0,1.150728035E1
6.745243396E0,-3.950272083E0,5.522302628E0,1.181245804E1
6.750307875E0,-4.072884560E0,5.099614143E0,1.139715004E1
6.755372250E0,-3.984730482E0,4.406275272E0,1.078209877E1
6.760436625E0,-4.051271439E0,3.570329666E0,1.024563313E1
6.765501885E0,-3.788867712E0,2.322296143E0,9.332321167E0
6.770566312E0,-3.441514015E0,9.852061272E-1,8.297363281E0
6.775630792E0,-3.067027092E0,-4.100046158E-1,7.256546974E0
6.780695271E0,-2.633206129E0,-1.688845634E0,6.296130180E0
6.785760375E0,-2.585988760E0,-2.652774811E0,5.449772358E0
6.790824854E0,-2.719953537E0,-3.361361504E0,4.689531326E0
6.795889385E0,-3.149944782E0,-3.777991295E0,4.131412983E0
6.800953812E0,-3.588343620E0,-4.027955055E0,3.818862438E0
6.806018865E0,-3.728260756E0,-4.130340576E0,3.754911900E0
6.811083396E0,-3.583236456E0,-3.898146629E0,3.879247189E0
6.816147927E0,-3.242074728E0,-2.981431961E0,4.116353989E0
6.821212406E0,-2.941250563E0,-2.010610580E0,4.024751663E0
6.826277354E0,-2.506584644E0,-1.735139847E0,3.630655527E0
6.831341885E0,-2.014686108E0,-1.651398659E0,3.462703705E0
6.836406417E0,-1.581913471E0,-1.687317848E0,3.325663090E0
6.841471000E0,-1.252854228E0,-1.646656036E0,3.134343386E0
6.846496521E0,-9.614896774E-1,-1.486466408E0,2.785687447E0
6.851559125E0,-7.649557590E-1,-1.173018456E0,2.468324661E0
6.856621677E0,-5.913462639E-1,-5.628805161E-1,1.109394431E0
6.861684229E0,-2.532958984E-1,4.689712524E-1,-3.129341364E0
6.866754958E0,3.207311630E-1,1.335090637E0,-5.376499653E0
6.871817927E0,1.097173691E0,1.887286663E0,-5.314619064E0
6.876880896E0,2.142572403E0,2.062295437E0,-4.521001816E0
6.881943917E0,3.220354080E0,1.839192867E0,-3.644438267E0
6.886848917E0,3.963314056E0,1.660553455E0,-2.977419615E0
6.891753917E0,4.309437752E0,1.674085140E0,-2.765475750E0
6.896658917E0,4.497912407E0,1.960498333E0,-2.885171175E0
6.901563917E0,4.447929382E0,2.381189823E0,-2.615263462E0
6.906642667E0,4.284878254E0,2.664264679E0,-2.322597027E0
6.911690323E0,3.984035015E0,2.901608467E0,-1.899774551E0
6.916738083E0,3.253931522E0,3.218708992E0,-1.555422306E0
6.921785792E0,2.210776329E0,3.272206306E0,-1.485132933E0
6.926885792E0,1.568862915E0,2.900586128E0,-1.404555559E0
6.931985792E0,1.365242243E0,2.400730610E0,-1.542979479E0
6.937085792E0,1.038300991E0,1.810401440E0,-1.733871222E0
6.942185792E0,6.592440605E-1,1.272706032E0,-1.795729876E0
6.947285792E0,5.108809471E-2,8.638048172E-1,-1.637167215E0
6.952385792E0,-5.842342377E-1,5.309286118E-1,-1.357342482E0
6.957485792E0,-1.187891722E0,3.507308960E-1,-1.011458516E0
6.962585792E0,-1.787513852E0,1.892776489E-1,-6.402201056E-1
6.967685792E0,-2.296144009E0,8.974647522E-2,-2.547255754E-1
6.972785792E0,-2.631791353E0,5.221652985E-2,2.011768222E-1
6.977885792E0,-2.688810587E0,4.327392578E-2,5.928440690E-1
6.982985792E0,-2.591854572E0,8.196544647E-2,8.384172916E-1
6.988085792E0,-2.308124065E0,2.445478439E-1,1.014152288E0
6.993185792E0,-2.044387579E0,4.062013626E-1,1.057840824E0
6.998285792E0,-1.820429444E0,5.762090683E-1,9.934707284E-1
7.003385792E0,-1.732155681E0,7.543983459E-1,8.980931640E-1
7.008485792E0,-1.736226559E0,9.024620056E-1,7.865688205E-1
7.013585792E0,-1.788563609E0,8.675394058E-1,6.349782944E-1
7.018685792E0,-1.711202502E0,7.791452408E-1,4.722197056E-1
7.023748656E0,-1.714438558E0,6.469497681E-1,1.556854248E-1
7.028705219E0,-1.797870517E0,4.520130157E-1,-3.033029437E-1
7.033760635E0,-1.952100396E0,2.800607681E-1,-8.588684201E-1
7.038816000E0,-2.023249626E0,1.602077484E-1,-1.388423681E0
7.043871417E0,-2.082781553E0,1.930475235E-1,-1.866665125E0
7.048963448E0,-2.097388268E0,1.631174088E-1,-2.389112949E0
7.054020687E0,-2.105673313E0,8.032226562E-2,-3.063255548E0
7.059077927E0,-2.054934502E0,1.193714142E-2,-3.816012621E0
7.064135219E0,-1.754375339E0,-1.613130569E-1,-4.649981022E0
7.069235219E0,-1.453901052E0,-3.960695267E-1,-5.309711456E0
7.074335219E0,-9.679301977E-1,-6.630783081E-1,-5.710915089E0
7.079435219E0,-3.937377930E-1,-8.712053299E-1,-5.722468376E0
7.084535219E0,6.677198410E-2,-9.006900787E-1,-5.429143429E0
7.089635219E0,5.097644329E-1,-8.948974609E-1,-4.945844650E0
7.094700635E0,8.683135509E-1,-9.210729599E-1,-4.451480865E0
7.099763292E0,9.411873817E-1,-1.013399124E0,-3.968293428E0
7.104826000E0,6.568801403E-1,-1.091192245E0,-3.485095263E0
7.109896365E0,1.358237267E-1,-1.327078819E0,-3.066762686E0
7.114959437E0,-4.922783375E-1,-1.654265404E0,-2.686573982E0
7.120022510E0,-1.136326909E0,-1.991492271E0,-2.450499058E0
7.125085635E0,-1.857693195E0,-2.290699959E0,-2.281901836E0
7.129997667E0,-2.553591013E0,-2.570287704E0,-2.156586170E0
7.135053187E0,-3.028010130E0,-2.782427788E0,-1.993052959E0
7.140108708E0,-3.398592949E0,-2.969595909E0,-1.820505619E0
7.145164281E0,-3.655193806E0,-3.031246185E0,-1.759093165E0
7.150255896E0,-3.778496027E0,-2.981894493E0,-1.818948627E0
7.155313240E0,-3.815867186E0,-2.984124184E0,-2.072007895E0
7.160370583E0,-3.724492550E0,-2.999666214E0,-2.379471779E0
7.165427927E0,-3.591156960E0,-3.133800507E0,-2.726465702E0
7.170514177E0,-3.325511932E0,-3.400673866E0,-3.059336901E0
7.175572979E0,-3.162780285E0,-3.843101501E0,-3.228392601E0
7.180631833E0,-3.055606842E0,-4.412886620E0,-3.346913576E0
7.185690635E0,-3.061615467E0,-4.942208290E0,-3.413190842E0
7.190790635E0,-3.214407682E0,-5.521711349E0,-3.320322514E0
7.195890635E0,-3.508791447E0,-6.031374931E0,-3.057326317E0
7.200990635E0,-3.848992109E0,-6.370709419E0,-2.613846302E0
7.206090635E0,-4.182108402E0,-6.621061325E0,-1.922337413E0
7.211188656E0,-4.570299625E0,-6.753919601E0,-1.327280760E0
7.216252615E0,-4.859852314E0,-6.740816116E0,-9.057594538E-1
7.221316573E0,-4.820205212E0,-6.710964203E0,-6.533278227E-1
7.226380479E0,-4.479718685E0,-6.788849831E0,-6.137322187E-1
7.231290010E0,-3.749188185E0,-6.822356224E0,-6.984651089E-1
7.236346208E0,-3.039707422E0,-6.404294968E0,-6.353714466E-1
7.241402406E0,-2.046836853E0,-5.177771568E0,-4.227823019E-1
7.246458656E0,-6.808567047E-1,-3.809198380E0,-4.259270430E-1
7.251548187E0,5.592503548E-1,-2.586220741E0,-9.127622247E-1
7.256606104E0,1.618976831E0,-1.528650284E0,-1.845675945E0
7.261664021E0,2.558693409E0,-7.706890106E-1,-2.797162056E0
7.266721937E0,3.328328609E0,-1.691045761E-1,-3.397318840E0
7.271806521E0,3.916146755E0,2.517557144E-1,-3.343085289E0
7.276865740E0,4.244235992E0,7.449102402E-1,-2.433974743E0
7.281925062E0,4.528855324E0,1.271954536E0,-1.105561733E0
7.286984229E0,4.993248940E0,1.790309429E0,3.252865374E-1
7.292084229E0,5.440476418E0,2.276886463E0,1.805631518E0
7.297184229E0,5.898486137E0,2.565104485E0,2.705878496E0
7.302284229E0,6.393958569E0,2.373644352E0,2.982215881E0
7.307384229E0,6.703795433E0,1.689126492E0,2.868897915E0
7.312481052E0,7.000492096E0,7.225370407E-1,2.623446465E0
7.317545375E0,7.291261673E0,-3.781900406E-1,2.368345737E0
7.322609646E0,7.419786453E0,-1.365174294E0,2.094223022E0
7.327673969E0,7.373837948E0,-2.220219612E0,1.876967907E0
7.332739490E0,7.070240974E0,-2.790959358E0,1.777877450E0
7.337803865E0,6.709107399E0,-3.135306358E0,1.848643541E0
7.342868240E0,6.146249771E0,-3.086212158E0,2.054846048E0
7.347932615E0,5.171832085E0,-2.763403893E0,2.132500172E0
7.352840792E0,4.151958942E0,-2.304299355E0,2.220142126E0
7.357897354E0,3.263947725E0,-1.753170967E0,2.388415337E0
7.362953917E0,2.456753492E0,-1.218834877E0,2.408422709E0
7.368010427E0,1.797916889E0,-9.113588333E-1,2.476652622E0
7.373110427E0,1.334439516E0,-7.781248093E-1,2.584486961E0
7.378210427E0,8.982844353E-1,-8.235416412E-1,2.563710690E0
7.383310427E0,5.175573826E-1,-7.940635681E-1,2.543960571E0
7.388410427E0,3.026814461E-1,-7.996244431E-1,2.511302710E0
7.393510427E0,-5.209350586E-2,-1.236994743E0,2.528439522E0
7.398577354E0,-7.612628937E-1,-1.698671341E0,2.795475245E0
7.403639490E0,-7.629983425E-1,-2.074312210E0,2.660644054E0
7.408701625E0,-8.544671535E-1,-2.489005089E0,2.951500893E0
7.413773604E0,-1.756333113E0,-3.067498207E0,3.445364475E0
7.418836260E0,-2.540899754E0,-3.608299255E0,3.446294785E0
7.423898865E0,-3.252493143E0,-3.777198792E0,3.428858280E0
7.428961469E0,-3.967256308E0,-3.627696991E0,3.533480883E0
7.434032042E0,-4.451241970E0,-3.303807259E0,3.545081854E0
7.439095062E0,-5.013135910E0,-2.906072617E0,3.715205669E0
7.444158083E0,-5.326626301E0,-2.472614288E0,4.010978699E0
7.449221156E0,-5.355174065E0,-2.084348679E0,4.137951374E0
7.454290479E0,-5.299090385E0,-1.640827179E0,4.063326359E0
7.459353865E0,-5.206865311E0,-1.079609871E0,3.823347569E0
7.464417198E0,-4.984393120E0,-6.014986038E-1,3.730967283E0
7.469480531E0,-4.466623783E0,-1.917037964E-1,3.571926117E0
7.474391729E0,-3.794921875E0,2.668466568E-1,3.405993223E0
7.479447458E0,-3.120323896E0,6.986393929E-1,3.348490000E0
7.484503187E0,-2.415991306E0,1.115610600E0,3.311437845E0
7.489558969E0,-1.808514953E0,1.480303764E0,3.363481760E0
7.494658969E0,-1.314331293E0,1.850601196E0,3.425931215E0
7.499758969E0,-1.007332087E0,2.218747616E0,3.599617243E0
7.504858969E0,-7.782323360E-1,2.552915096E0,3.876991987E0
7.509958969E0,-5.978310108E-1,2.806812763E0,4.156301975E0
7.515058969E0,-5.463953018E-1,2.991130829E0,4.494877815E0
7.520127562E0,-4.979841709E-1,3.054077148E0,4.893279076E0
7.525189073E0,-5.613043308E-1,3.062463760E0,5.296012878E0
7.530250583E0,-7.114849091E-1,3.020635605E0,5.561344147E0
7.535324490E0,-9.863705635E-1,3.181271553E0,5.825085640E0
7.540386625E0,-1.208000422E0,3.309343815E0,5.978659153E0
7.545448708E0,-1.293973684E0,3.629160404E0,6.133931637E0
7.550510844E0,-1.333767891E0,4.020360947E0,6.216530800E0
7.555425792E0,-1.436068535E0,4.343088150E0,6.291587353E0
7.560480479E0,-1.649590254E0,4.453743935E0,6.430344582E0
7.565535271E0,-1.759284258E0,4.447869301E0,6.652153969E0
7.570590062E0,-1.688811064E0,4.492925644E0,6.832562923E0
7.575683969E0,-1.585802317E0,4.488264084E0,6.876905441E0
7.580740687E0,-1.463811159E0,4.591361046E0,6.896717072E0
7.585797458E0,-1.293415546E0,4.701785088E0,6.820688248E0
7.590854177E0,-1.208382607E0,4.814726830E0,6.572564602E0
7.595942198E0,-1.127805233E0,4.887331963E0,6.247313499E0
7.601000531E0,-9.859037399E-1,5.010241508E0,5.954297543E0
7.606058865E0,-8.362250328E-1,5.097608089E0,5.668030739E0
7.611117146E0,-6.797285080E-1,5.154134274E0,5.392403603E0
7.616217146E0,-5.358374119E-1,5.227976799E0,5.102388382E0
7.621317146E0,-4.765639305E-1,5.280582905E0,4.826611042E0
7.626417146E0,-4.014205933E-1,5.297603130E0,4.488182545E0
7.631517146E0,-2.438173294E-1,5.231123924E0,4.101048470E0
7.636616729E0,-6.673693657E-2,5.114338875E0,3.669704676E0
7.641680271E0,7.621359825E-2,5.051835060E0,3.127280951E0
7.646743865E0,2.174274921E-1,4.809347153E0,2.438481808E0
7.651807406E0,5.323789120E-1,4.472846985E0,1.716838360E0
7.656875167E0,1.053699970E0,3.984880924E0,1.018690586E0
7.661938917E0,1.566012859E0,3.287986279E0,3.580498695E-1
7.667002719E0,1.955229759E0,2.248337746E0,-2.747375965E-1
7.672066469E0,2.170585155E0,9.092164040E-1,-1.376018286E0
7.676976417E0,2.400974751E0,-8.988523483E-1,-4.242260456E0
7.682032510E0,2.628387451E0,-3.489583969E0,-1.021638298E1
7.687088552E0,3.304806471E0,-7.222535133E0,-1.868355179E1
7.692144698E0,5.152091026E0,-1.139479828E1,-2.342001152E1
7.697234594E0,6.899424553E0,-1.394762230E1,-2.272642326E1
7.702292406E0,7.135065079E0,-1.438472652E1,-1.962028122E1
7.707350219E0,5.901645660E0,-1.285939980E1,-1.577779484E1
7.712407979E0,3.577146530E0,-1.008935452E1,-1.209737206E1
7.717507979E0,1.577970743E0,-7.661117554E0,-8.844875336E0
7.722607979E0,5.825006962E-1,-5.819046974E0,-5.953596115E0
7.727707979E0,2.058265209E-1,-4.325304031E0,-4.209839821E0
7.732807979E0,9.398937225E-3,-2.944132805E0,-3.448881388E0
7.737907979E0,3.703117371E-2,-1.426024437E0,-3.182429314E0
7.742972198E0,2.101652622E-1,2.878665924E-1,-2.756535530E0
7.748035323E0,8.372330666E-1,1.568024158E0,-1.638877869E0
7.753098448E0,1.634397030E0,2.536707878E0,5.696058273E-1
7.758167510E0,2.339531898E0,3.411774158E0,2.725276470E0
7.763230948E0,2.907258034E0,4.075071812E0,3.909759760E0
7.768294385E0,3.286231995E0,4.483129978E0,3.984093428E0
7.773357771E0,3.418571711E0,4.572094440E0,3.116643190E0
7.778268760E0,3.426376104E0,4.196053982E0,2.135548115E0
7.783324542E0,3.655715704E0,3.287096977E0,1.547991157E0
7.788380323E0,4.012676239E0,2.044848442E0,1.135149717E0
7.793436156E0,4.461841583E0,6.886029243E-1,8.593151569E-1
7.798526990E0,4.854103088E0,-7.057647705E-1,8.650105000E-1
7.803584594E0,4.947134972E0,-2.143289566E0,8.486356735E-1
7.808642146E0,4.892453194E0,-3.805368423E0,1.009415150E0
7.813699750E0,4.870904922E0,-5.801087379E0,1.804832220E0
7.818799750E0,5.085872650E0,-7.827533722E0,3.119425297E0
7.823899750E0,5.569599152E0,-9.644488335E0,4.536862850E0
7.828999750E0,5.839652538E0,-1.083095551E1,5.256523132E0
7.834099750E0,5.547271729E0,-1.094344997E1,4.891549587E0
7.839199750E0,4.163421631E0,-9.597167015E0,3.671309233E0
7.844264385E0,1.890666723E0,-7.120023727E0,1.925123453E0
7.849327354E0,-3.954532146E-1,-4.393712997E0,2.055890560E-1
7.854390323E0,-2.159365177E0,-1.959616661E0,-1.197979450E-1
7.859479490E0,-3.388773441E0,-4.056930542E-3,1.804481983E0
7.864543760E0,-3.954099417E0,1.622914791E0,4.754257679E0
7.869608031E0,-4.282192707E0,2.952350616E0,7.644948006E0
7.874672302E0,-4.326321602E0,3.862493992E0,9.592575073E0
7.879577302E0,-4.055982590E0,4.273466587E0,1.030904007E1
7.884616625E0,-3.659298420E0,4.368399143E0,1.028370285E1
7.889672094E0,-3.373347759E0,4.290224552E0,1.000418663E1
7.894727615E0,-3.087799311E0,3.947747707E0,9.352679253E0
7.899827615E0,-2.792295933E0,3.498751640E0,8.570328712E0
7.904927615E0,-2.611270905E0,3.057099342E0,7.760528564E0
7.910027615E0,-2.525359154E0,2.464188576E0,7.035545349E0
7.915127615E0,-2.295414209E0,1.647657871E0,6.459862709E0
7.920032615E0,-2.095753670E0,8.160772324E-1,5.900077820E0
7.925054437E0,-2.015830755E0,-1.489114761E-1,5.348600388E0
7.930109750E0,-1.989755154E0,-1.205163002E0,4.750764370E0
7.935165115E0,-1.870187044E0,-2.281622887E0,4.266929150E0
7.940265115E0,-1.767931223E0,-3.206445694E0,3.836001396E0
7.945365115E0,-1.727212787E0,-3.856066704E0,3.349713326E0
7.950465115E0,-1.838794947E0,-4.096829414E0,2.717947006E0
7.955565115E0,-2.101295948E0,-4.029069901E0,1.926606894E0
7.960665115E0,-2.503309250E0,-3.757549286E0,1.090065122E0
7.965765115E0,-2.756576538E0,-3.401091576E0,2.961634398E-1
7.970863604E0,-2.813081741E0,-3.059388161E0,-2.778126001E-1
7.975918917E0,-2.754133224E0,-2.693502426E0,-7.414492369E-1
7.981010844E0,-2.435676098E0,-2.173610687E0,-1.065480590E0
7.986071990E0,-1.856916428E0,-1.762527466E0,-1.203933835E0
7.991133187E0,-1.231630921E0,-1.430914879E0,-1.182450056E0
7.996194333E0,-7.073094845E-1,-1.154929161E0,-1.086660624E0
8.001112094E0,-1.080250740E-1,-8.496227264E-1,-1.022434950E0
8.006166052E0,4.049198627E-1,-5.385293961E-1,-9.304553866E-1
8.011220062E0,8.535571098E-1,-1.944780350E-1,-8.621814251E-1
8.016274073E0,1.189119577E0,1.147966385E-1,-8.428006172E-1
8.021374073E0,1.415608644E0,4.319114685E-1,-8.506045938E-1
8.026474073E0,1.450630188E0,7.611341476E-1,-7.996375561E-1
8.031574073E0,1.313144445E0,1.025956154E0,-6.205225587E-1
8.036674073E0,1.166026115E0,1.284108162E0,-3.499106169E-1
8.041774073E0,1.038229704E0,1.545525074E0,-1.783942580E-1
8.046846365E0,9.243857861E-1,1.748150349E0,-3.393523023E-2
8.051906469E0,8.385071754E-1,1.940043926E0,5.868599564E-2
8.056966573E0,8.181791306E-1,2.130802631E0,9.298479557E-2
8.062044646E0,8.770074844E-1,2.181700230E0,1.055956706E-1
8.067105635E0,8.895936012E-1,2.178843021E0,2.048286647E-1
8.072166677E0,9.656155109E-1,2.074429989E0,3.829474747E-1
8.077227667E0,9.467298985E-1,1.892382145E0,3.925577402E-1
8.082145896E0,1.037559509E0,1.661198139E0,9.841084480E-2
8.087199750E0,1.162529707E0,1.409862518E0,-3.049523532E-1
8.092253604E0,1.201385260E0,1.281785011E0,-6.039956808E-1
8.097307510E0,1.125907898E0,1.334365845E0,-6.773681641E-1
8.102404021E0,8.888657093E-1,1.337968826E0,-6.111550927E-1
8.107460062E0,6.633727551E-1,1.326356888E0,-5.197366476E-1
8.112516052E0,3.690702915E-1,1.309335709E0,-3.607877195E-1
8.117572094E0,9.777522087E-2,1.253630638E0,-2.495922744E-1
8.122672094E0,-1.693124771E-1,1.216707230E0,-1.824094951E-1
8.127772094E0,-3.697718382E-1,1.117247581E0,-1.503791511E-1
8.132872094E0,-5.231045485E-1,1.050817490E0,-2.549329102E-1
8.137972094E0,-6.582642794E-1,9.407100677E-1,-4.681288898E-1
8.143072094E0,-8.183860779E-1,7.629394531E-1,-7.188742161E-1
8.148140115E0,-8.886654377E-1,6.466760635E-1,-8.919696808E-1
8.153201781E0,-1.027036905E0,5.726413727E-1,-1.035351038E0
8.158263500E0,-1.128041983E0,4.977426529E-1,-1.172579885E0
8.163336781E0,-1.253941298E0,4.267721176E-1,-1.345782638E0
8.168399073E0,-1.299328446E0,3.885593414E-1,-1.500841141E0
8.173461312E0,-1.388654828E0,3.735609055E-1,-1.617857695E0
8.178523604E0,-1.479001164E0,3.291864395E-1,-1.729499578E0
8.183595219E0,-1.604148746E0,2.363700867E-1,-1.753705502E0
8.188657979E0,-1.744853020E0,1.574687958E-1,-1.747286797E0
8.193720740E0,-1.896168947E0,6.866836548E-2,-1.781690836E0
8.198783500E0,-1.880717754E0,1.790809631E-2,-1.852349281E0
8.203853604E0,-1.746534824E0,9.951591492E-3,-1.992716074E0
8.208916729E0,-1.598810077E0,5.438899994E-2,-2.145281792E0
8.213979854E0,-1.480652571E0,1.798229218E-1,-2.362899780E0
8.219042979E0,-1.324965000E0,2.235774994E-1,-2.588253498E0
8.224111990E0,-1.193374634E0,1.714820862E-1,-2.793236494E0
8.229175427E0,-1.075486183E0,2.200088501E-1,-2.977639675E0
8.234238812E0,-9.463979006E-1,1.732788086E-1,-2.988248110E0
8.239302250E0,-7.002376318E-1,1.177282333E-1,-2.920831203E0
8.244370427E0,-3.988814354E-1,-8.591651917E-3,-2.952131987E0
8.249434125E0,-1.383042336E-2,-1.720180511E-1,-3.028950214E0
8.254497771E0,5.212974548E-1,-1.907205582E-1,-3.222266197E0
8.259561365E0,8.991532326E-1,-1.464281082E-1,-3.536657572E0
8.264628812E0,1.099523067E0,-1.734809875E-1,-3.881289482E0
8.269692667E0,1.193407536E0,-3.055181503E-1,-4.088795185E0
8.274756521E0,1.098414660E0,-5.617151260E-1,-4.053482056E0
8.279820375E0,7.085726261E-1,-9.132966995E-1,-3.894371510E0
8.284887302E0,9.536814690E-2,-1.226113319E0,-3.548143864E0
8.289951312E0,-6.167171001E-1,-1.538408279E0,-3.138954163E0
8.295015323E0,-1.336189032E0,-1.811736107E0,-2.637964249E0
8.300079333E0,-2.047782183E0,-2.122559547E0,-2.165504932E0
8.305145740E0,-2.573335648E0,-2.523359299E0,-1.708371162E0
8.310209854E0,-2.930579424E0,-2.879873276E0,-1.277141809E0
8.315274021E0,-3.214079618E0,-3.139488220E0,-9.832563400E-1
8.320338083E0,-3.389336109E0,-3.335824013E0,-9.047373533E-1
8.325404177E0,-3.393386364E0,-3.402000427E0,-9.470225573E-1
8.330468396E0,-3.302691460E0,-3.438796997E0,-1.092192411E0
8.335532615E0,-3.145657778E0,-3.613697052E0,-1.364987612E0
8.340596833E0,-2.917926311E0,-3.658823013E0,-1.703185320E0
8.345662562E0,-2.677279711E0,-3.756156921E0,-2.068436384E0
8.350726885E0,-2.471773863E0,-3.862496376E0,-2.407341003E0
8.355791208E0,-2.283021212E0,-3.853526115E0,-2.699832201E0
8.360855479E0,-2.144705534E0,-3.839181900E0,-3.054654121E0
8.365921000E0,-2.114157438E0,-3.828674316E0,-3.312197208E0
8.370985375E0,-2.018905401E0,-3.840710640E0,-3.489954948E0
8.376049750E0,-1.830477834E0,-3.894083023E0,-3.787207127E0
8.381114125E0,-1.607398272E0,-3.859587669E0,-4.006101131E0
8.386179437E0,-1.384175777E0,-3.971668243E0,-3.901297092E0
8.391243865E0,-1.166702986E0,-4.024568558E0,-3.423929691E0
8.396308292E0,-1.018058419E0,-3.985005379E0,-3.113782167E0
8.401372667E0,-6.986254454E-1,-4.092227936E0,-3.085487366E0
8.406437875E0,-3.083159924E-1,-4.508619308E0,-3.310083866E0
8.411502354E0,3.827357292E-2,-4.923049927E0,-3.418998480E0
8.416566781E0,3.364386559E-1,-5.053633690E0,-3.273980618E0
8.421631260E0,6.339199543E-1,-4.666763306E0,-3.019360065E0
8.426656990E0,7.770173550E-1,-3.816336632E0,-2.914879322E0
8.431719490E0,8.568825722E-1,-2.584376335E0,-2.744668007E0
8.436781990E0,1.194269896E0,-1.387956619E0,-2.764815331E0
8.441844490E0,1.544114828E0,-7.726526260E-1,-3.128118515E0
8.446749490E0,1.986345291E0,-3.270893097E-1,-3.107796192E0
8.451654490E0,2.342465162E0,1.258296967E-1,-2.488324404E0
8.456559490E0,2.458766937E0,5.568037033E-1,-1.595034719E0
8.461464490E0,2.627645016E0,8.697671890E-1,-4.959239364E-1
8.466466260E0,2.715480328E0,1.164962769E0,7.291526794E-1
8.471511677E0,2.681103468E0,1.485209465E0,1.712691307E0
8.476557146E0,2.579705715E0,1.591548443E0,2.546912909E0
8.481602562E0,2.595846176E0,1.298269272E0,3.067277670E0
8.486702562E0,2.707600355E0,8.741483688E-1,3.365269423E0
8.491802562E0,2.888411522E0,4.108762741E-1,3.418467999E0
8.496902562E0,3.187668800E0,-1.722164154E-1,3.163848877E0
8.502002562E0,3.825608492E0,-9.033966064E-1,3.035943270E0
8.507102562E0,4.652549744E0,-1.729920387E0,2.875617504E0
8.512202562E0,5.479143143E0,-2.594691277E0,2.600361109E0
8.517302562E0,6.196640491E0,-3.426528931E0,2.295348644E0
8.522402562E0,6.762952805E0,-4.144848824E0,1.964634418E0
8.527502562E0,7.012079239E0,-4.592610359E0,1.488699198E0
8.532602562E0,6.778944969E0,-4.603230476E0,1.030431271E0
8.537702562E0,6.095854759E0,-4.306671143E0,6.716519594E-1
8.542802562E0,5.292714119E0,-3.698622704E0,5.898729563E-1
8.547902562E0,4.355581284E0,-3.004079819E0,7.706681490E-1
8.553002562E0,3.305001259E0,-2.437917709E0,1.051195741E0
8.558102562E0,2.562829018E0,-2.052131653E0,1.603030205E0
8.563202562E0,2.085795879E0,-1.865479469E0,2.196207285E0
8.568302562E0,1.739633560E0,-1.848972321E0,2.543728352E0
8.573402562E0,1.279723406E0,-1.945243835E0,2.564866543E0
8.578502562E0,5.005414486E-1,-2.015959740E0,2.357147217E0
8.583602562E0,-3.910858631E-1,-2.228910446E0,2.419810295E0
8.588702562E0,-6.058485508E-1,-2.646078110E0,2.838049650E0
8.593802562E0,-1.187802672E0,-2.794090271E0,3.233350277E0
8.598856677E0,-2.517271519E0,-2.854270935E0,3.116973639E0
8.603902094E0,-3.456904650E0,-2.970136642E0,3.032491922E0
8.609002094E0,-4.181538582E0,-3.051240921E0,3.131842136E0
8.614077979E0,-4.719314098E0,-2.842763901E0,3.235007286E0
8.619132667E0,-5.118758202E0,-2.474371910E0,3.418810368E0
8.624187302E0,-5.170309067E0,-2.089867592E0,3.754627228E0
8.629124594E0,-5.124480247E0,-1.754037857E0,4.058475971E0
8.634173396E0,-5.022946835E0,-1.431399345E0,4.170495510E0
8.639222198E0,-4.674471378E0,-1.028717995E0,3.950851679E0
8.644271000E0,-4.162798405E0,-5.359668732E-1,3.797901630E0
8.649371000E0,-3.591406584E0,-5.874538422E-2,3.704356194E0
8.654434542E0,-3.024610519E0,4.004063606E-1,3.716542006E0
8.659486521E0,-2.507772207E0,8.708181381E-1,3.755164385E0
8.664538448E0,-2.114483833E0,1.353375435E0,3.851173162E0
8.669638448E0,-1.798118830E0,1.872718811E0,4.069947243E0
8.674738448E0,-1.530387163E0,2.359170437E0,4.394069672E0
8.679838448E0,-1.340026379E0,2.804212093E0,4.703241348E0
8.684938448E0,-1.317652225E0,3.165729046E0,5.121564865E0
8.690038448E0,-1.348291159E0,3.492124081E0,5.577279091E0
8.695115167E0,-1.359840155E0,3.707450390E0,5.764387608E0
8.700173604E0,-1.410735846E0,3.887770891E0,5.817721367E0
8.705232094E0,-1.626455069E0,3.979538202E0,6.058712959E0
8.710314958E0,-1.887201071E0,4.235737801E0,6.478623390E0
8.715374698E0,-2.158350468E0,4.445752144E0,6.762477398E0
8.720434385E0,-2.362537384E0,4.556709290E0,6.887634277E0
8.725494073E0,-2.528025627E0,4.659127712E0,6.912679672E0
8.730573292E0,-2.495982170E0,4.743108749E0,6.934617996E0
8.735633969E0,-2.380067348E0,4.855753899E0,6.931652069E0
8.740694646E0,-2.222302437E0,4.948535442E0,6.829139233E0
8.745755271E0,-2.127262831E0,4.925172806E0,6.643067360E0
8.750674542E0,-2.003601789E0,4.932831287E0,6.390148163E0
8.755728135E0,-1.851523638E0,4.882023811E0,6.067931652E0
8.760781729E0,-1.628077269E0,4.843599796E0,5.711377144E0
8.765835323E0,-1.386247158E0,4.932036877E0,5.373230934E0
8.770932667E0,-1.140116692E0,4.961296558E0,5.038153172E0
8.775988448E0,-9.666700363E-1,5.007284641E0,4.773673058E0
8.781044281E0,-9.090037346E-1,5.060939789E0,4.463645458E0
8.786100062E0,-9.288067818E-1,5.112939358E0,4.274679184E0
8.791200062E0,-8.300652504E-1,5.163765430E0,4.099981785E0
8.796300062E0,-6.661190987E-1,5.088589191E0,3.843772888E0
8.801400062E0,-4.422080517E-1,4.973328590E0,3.477229118E0
8.806500062E0,-1.450257301E-1,4.827070236E0,2.937895536E0
8.811600062E0,6.584882736E-2,4.615411758E0,2.273610592E0
8.816668448E0,3.326194286E-1,4.352124214E0,1.493595839E0
8.821730010E0,5.780971050E-1,4.032710552E0,6.345949173E-1
8.826791573E0,7.979722023E-1,3.495013714E0,-5.097484589E-2
8.831708187E0,9.826154709E-1,2.599178314E0,-7.903940678E-1
8.836762458E0,1.312013388E0,1.206124783E0,-1.624662399E0
8.841816729E0,1.662117481E0,-5.568695068E-1,-3.332795620E0
8.846871052E0,1.925159693E0,-2.600475311E0,-7.293424606E0
8.851971052E0,2.541124105E0,-5.353419304E0,-1.366423893E1
8.857071052E0,4.073110580E0,-8.764057159E0,-1.908017159E1
8.862171052E0,6.260650635E0,-1.132023144E1,-1.946592903E1
8.867271052E0,7.405496597E0,-1.217224598E1,-1.713401794E1
8.872224750E0,7.137940407E0,-1.182757282E1,-1.464776421E1
8.877281104E0,5.819718361E0,-1.054372787E1,-1.223786163E1
8.882337458E0,4.021576881E0,-8.668834686E0,-9.995805740E0
8.887393865E0,2.826847553E0,-6.612107277E0,-7.945596695E0
8.892493865E0,2.307237625E0,-4.941054344E0,-6.205010414E0
8.897593865E0,2.009388208E0,-3.568303108E0,-4.639289856E0
8.902693865E0,1.542846441E0,-2.172869682E0,-3.572010994E0
8.907793865E0,1.147162437E0,-6.004981995E-1,-3.140513897E0
8.912893865E0,9.734883308E-1,9.066529274E-1,-2.295468330E0
8.917961000E0,8.155822754E-1,2.241748810E0,-1.186857224E-1
8.923022979E0,7.047498226E-1,3.446692944E0,2.425999880E0
8.928085010E0,7.888407707E-1,4.424204350E0,4.183681488E0
8.933157406E0,8.931722641E-1,5.132700920E0,4.429083347E0
8.938219906E0,8.779954910E-1,5.600358009E0,3.438180208E0
8.943282406E0,1.070021629E0,5.500079155E0,2.041693211E0
8.948344958E0,1.671151876E0,4.591122150E0,8.255152702E-1
8.953258656E0,2.506426573E0,3.149973869E0,-2.083656788E-1
8.958313708E0,3.378016949E0,1.487521648E0,-9.217219353E-1
8.963368812E0,4.141075611E0,-2.489614487E-1,-1.117241621E0
8.968423865E0,4.413018227E0,-1.878109932E0,-7.850325108E-1
8.973516781E0,4.201367378E0,-3.600461960E0,-1.874444485E-1
8.978573760E0,4.084932327E0,-5.663661003E0,4.582118988E-1
8.983630740E0,4.478056908E0,-7.784271240E0,1.321091175E0
8.988687719E0,4.557318687E0,-9.316487312E0,2.562913895E0
8.993787719E0,4.474667072E0,-1.044688702E1,3.849028826E0
8.998887719E0,4.973680496E0,-1.129578018E1,4.492176056E0
9.003987719E0,5.121860981E0,-1.131064129E1,4.225277424E0
9.009087719E0,4.395802975E0,-1.015517521E1,3.310970068E0
9.014033448E0,2.940889597E0,-7.842109680E0,1.881371498E0
9.019091990E0,1.111321688E0,-4.989524841E0,2.680041790E-1
9.024150479E0,-4.439837933E-1,-2.455156326E0,-4.398372173E-1
9.029208969E0,-1.423243284E0,-2.870035172E-1,7.262716293E-1
9.034308969E0,-2.086131573E0,1.611572742E0,3.330414772E0
9.039408969E0,-2.525500298E0,3.166107178E0,5.946508408E0
9.044508969E0,-2.552136421E0,4.321835041E0,7.932981014E0
9.049608969E0,-2.675119400E0,5.148119926E0,9.669462204E0
9.054707875E0,-3.262133598E0,5.699929237E0,1.067723083E1
9.059771573E0,-3.560281992E0,5.653984070E0,1.057624435E1
9.064835271E0,-3.431872368E0,5.102104187E0,9.987728119E0
9.069898969E0,-3.356913805E0,4.455697536E0,9.198547363E0
9.074809021E0,-3.231243610E0,3.785048962E0,8.388682365E0
9.079865062E0,-2.747051716E0,3.014393806E0,7.542336464E0
9.084921104E0,-2.346520424E0,2.241934776E0,6.778744698E0
9.089977094E0,-1.910541296E0,1.270124912E0,6.058082581E0
9.095077094E0,-1.621156096E0,2.846355438E-1,5.473924637E0
9.100177094E0,-1.564612985E0,-9.215517044E-1,4.844187737E0
9.105277094E0,-1.539412379E0,-2.090561867E0,4.291907787E0
9.110377094E0,-1.569489598E0,-3.141762733E0,3.648232222E0
9.115477094E0,-1.765230179E0,-3.831955910E0,2.973872185E0
9.120545010E0,-2.068584681E0,-4.137702942E0,2.443795681E0
9.125606729E0,-2.459125519E0,-4.054036140E0,2.106190205E0
9.130668448E0,-2.724187851E0,-3.690514565E0,1.866036773E0
9.135741677E0,-2.756790876E0,-3.295181274E0,1.694188714E0
9.140803969E0,-2.666501045E0,-2.924880981E0,1.570526123E0
9.145866260E0,-2.591512442E0,-2.669737816E0,1.172019124E0
9.150928500E0,-2.622922421E0,-2.490884781E0,5.861899257E-1
9.155842875E0,-2.436599255E0,-2.177766800E0,-9.450721741E-2
9.160897771E0,-1.978364706E0,-1.729189873E0,-7.998965979E-1
9.165952667E0,-1.368469596E0,-1.370071411E0,-1.503742099E0
9.171007562E0,-7.076041698E-1,-9.806518555E-1,-1.869439125E0
9.176101000E0,2.770686150E-2,-5.899066925E-1,-1.994908810E0
9.181157823E0,7.254598141E-1,-1.989946365E-1,-1.936011314E0
9.186214698E0,1.350820780E0,1.816005707E-1,-1.710508347E0
9.191271521E0,1.835891724E0,4.793024063E-1,-1.430130482E0
9.196359229E0,2.080113888E0,6.985149384E-1,-1.139581680E0
9.201417615E0,2.102570772E0,9.488878250E-1,-1.048451662E0
9.206476000E0,1.933116674E0,1.206716537E0,-9.570720196E-1
9.211534437E0,1.725839376E0,1.486695766E0,-8.096027374E-1
9.216634437E0,1.529309750E0,1.703150272E0,-6.236819625E-1
9.221734437E0,1.362030268E0,1.889727116E0,-4.119749069E-1
9.226834437E0,1.223394156E0,2.041801929E0,-5.949081481E-2
9.231934437E0,1.141175032E0,2.102025509E0,1.888394803E-1
9.237033604E0,1.085467100E0,2.180379391E0,3.648653030E-1
9.242097198E0,1.007356644E0,2.238425732E0,5.290121436E-1
9.247160844E0,8.729758263E-1,2.276134014E0,5.967122316E-1
9.252224437E0,7.874448299E-1,2.173938274E0,5.128495693E-1
9.257291990E0,7.889413834E-1,2.022867680E0,3.522527516E-1
9.262355792E0,8.917140961E-1,1.765570164E0,5.596208572E-2
9.267419594E0,9.470851421E-1,1.588593006E0,-2.140111178E-1
9.272483448E0,8.356103897E-1,1.472721100E0,-3.856278360E-1
9.277393240E0,6.585538387E-1,1.422884941E0,-4.140312076E-1
9.282449385E0,3.644535542E-1,1.348309517E0,-3.061073422E-1
9.287505479E0,-3.661179543E-2,1.282635689E0,-1.897644997E-1
9.292561625E0,-4.292620420E-1,1.221183777E0,4.517352581E-2
9.297651365E0,-8.130484819E-1,1.135335922E0,2.834596038E-1
9.302709229E0,-1.149374962E0,1.034775734E0,4.297385216E-1
9.307767042E0,-1.485941768E0,9.099597931E-1,5.506538749E-1
9.312824854E0,-1.722259045E0,7.991161346E-1,5.737867355E-1
9.317924854E0,-1.901500702E0,6.638698578E-1,4.936649799E-1
9.323024854E0,-1.999881744E0,5.663890839E-1,3.107306957E-1
9.328124854E0,-2.079700470E0,5.017919540E-1,9.681433439E-2
9.333224854E0,-2.045268774E0,4.700355530E-1,-2.051481009E-1
9.338324854E0,-2.049819231E0,4.854154587E-1,-5.611665249E-1
9.343388865E0,-2.083753109E0,5.192050934E-1,-9.514526129E-1
9.348452042E0,-2.156394005E0,5.283641815E-1,-1.275570869E0
9.353515167E0,-2.166548252E0,4.652347565E-1,-1.610294461E0
9.358584125E0,-2.118810892E0,3.586254120E-1,-1.869661093E0
9.363647562E0,-1.955637693E0,2.468280792E-1,-2.058904648E0
9.368711000E0,-1.701407909E0,1.153478622E-1,-2.350489855E0
9.373774437E0,-1.423586011E0,3.588676453E-2,-2.609796524E0
9.378842510E0,-1.141721487E0,-3.471374512E-2,-2.798085928E0
9.383906156E0,-9.518432617E-1,-1.060657501E-1,-3.058402061E0
9.388969854E0,-7.968009710E-1,-2.020797729E-1,-3.390037775E0
9.394033500E0,-7.484310865E-1,-3.273382187E-1,-3.782224655E0
9.399100844E0,-7.204071283E-1,-5.101537704E-1,-4.051620960E0
9.404164750E0,-6.214150190E-1,-7.404441833E-1,-4.196988106E0
9.409228552E0,-4.365453720E-1,-9.267158508E-1,-4.173910141E0
9.414292406E0,-7.946109772E-2,-1.078029633E0,-4.157849312E0
9.419359281E0,2.437820435E-1,-1.012290955E0,-4.065907478E0
9.424423292E0,5.142972469E-1,-9.591112137E-1,-3.960155725E0
9.429487302E0,7.896168232E-1,-9.234561920E-1,-3.822916985E0
9.434551312E0,9.596664906E-1,-8.721933365E-1,-3.708666801E0
9.439617667E0,1.033301353E0,-8.825922012E-1,-3.485860348E0
9.444681781E0,8.382329941E-1,-1.045911789E0,-3.233013630E0
9.449745896E0,3.166365623E-1,-1.290641785E0,-2.984535694E0
9.454810062E0,-3.882598877E-1,-1.502007484E0,-2.773528099E0
9.459876052E0,-1.056302667E0,-1.703783989E0,-2.637302160E0
9.464940271E0,-1.701144338E0,-1.886000633E0,-2.421802521E0
9.470004490E0,-2.202289104E0,-2.105651855E0,-2.136072397E0
9.475068708E0,-2.544687271E0,-2.319477081E0,-1.928826809E0
9.479977250E0,-2.755560398E0,-2.479298592E0,-1.771869183E0
9.485033708E0,-2.835643291E0,-2.528223991E0,-1.695006967E0
9.490090167E0,-2.803272963E0,-2.576413155E0,-1.771264315E0
9.495146573E0,-2.634414196E0,-2.533231735E0,-1.891858339E0
9.500235479E0,-2.429740191E0,-2.580791473E0,-2.053069115E0
9.505293552E0,-2.198795795E0,-2.704728127E0,-2.303210974E0
9.510351677E0,-1.985131502E0,-2.823719978E0,-2.488845825E0
9.515409750E0,-1.751047134E0,-2.952102661E0,-2.556604624E0
9.520493656E0,-1.611914396E0,-3.137619972E0,-2.696868420E0
9.525553083E0,-1.481919765E0,-3.332186699E0,-2.826907635E0
9.530612458E0,-1.409153700E0,-3.454269409E0,-3.041064978E0
9.535671833E0,-1.393274546E0,-3.541849136E0,-3.232768059E0
9.540771833E0,-1.304548264E0,-3.570666313E0,-3.386697769E0
9.545871833E0,-1.238481998E0,-3.435339928E0,-3.444724560E0
9.550971833E0,-1.128317714E0,-3.380002022E0,-3.425844193E0
9.556071833E0,-9.744712114E-1,-3.342494965E0,-3.397033215E0
9.561168083E0,-8.202589750E-1,-3.423256874E0,-3.415369987E0
9.566232510E0,-6.513872147E-1,-3.598149300E0,-3.427541733E0
9.571296937E0,-4.250504971E-1,-3.953073502E0,-3.413525581E0
9.576361312E0,-2.379028797E-1,-4.263276100E0,-3.511485577E0
9.581269281E0,-1.960756779E-1,-4.548461914E0,-3.697996140E0
9.586325844E0,-2.418904305E-1,-4.673998833E0,-3.724699020E0
9.591382458E0,-3.943195343E-1,-4.621276855E0,-3.506239414E0
9.596439021E0,-5.237870216E-1,-4.438405037E0,-3.042334080E0
9.601527458E0,-5.968418121E-1,-4.106615067E0,-2.571741581E0
9.606585687E0,-8.378416300E-1,-3.315785408E0,-2.220905542E0
9.611643865E0,-8.007088900E-1,-2.329752922E0,-1.957696676E0
9.616702042E0,-4.708988667E-1,-1.713344574E0,-2.041174173E0
9.621785687E0,-4.534101486E-2,-1.179228783E0,-2.032555819E0
9.626845219E0,4.755334854E-1,-6.177091599E-1,-1.423687458E0
9.631904646E0,9.136521816E-1,-1.300487518E-1,-4.494024515E-1
9.636964125E0,1.488376856E0,6.771945953E-2,5.242918134E-1
9.642064125E0,1.854379416E0,2.812757492E-1,1.410918713E0
9.647164125E0,2.059952497E0,4.765825272E-1,2.197662830E0
9.652264125E0,2.206990957E0,5.675764084E-1,2.887421846E0
9.657364125E0,2.317040682E0,4.878959656E-1,3.344264984E0
9.662460062E0,2.560361862E0,3.485136032E-1,3.336724281E0
9.667524542E0,2.705190182E0,1.169414520E-1,2.982507467E0
9.672588969E0,2.917098999E0,-1.436033249E-1,2.473420382E0
9.677653448E0,3.383746386E0,-5.664157867E-1,2.128462553E0
9.682718448E0,4.294999123E0,-1.285237312E0,2.003466368E0
9.687782979E0,5.436695099E0,-2.156770706E0,1.824321747E0
9.692847458E0,6.626962185E0,-3.081262589E0,1.580529094E0
9.697911937E0,7.726164818E0,-3.911507607E0,1.458234429E0
9.702819698E0,8.283075333E0,-4.504723549E0,1.318862319E0
9.707876365E0,8.148522377E0,-4.594858170E0,1.123495102E0
9.712933031E0,7.349445343E0,-4.134527206E0,9.403519630E-1
9.717989698E0,6.006384373E0,-3.162531853E0,8.848718405E-1
9.723089698E0,4.533341885E0,-1.999540329E0,1.082659960E0
9.728189698E0,3.402213573E0,-9.937868118E-1,1.436886311E0
9.733289698E0,2.404070854E0,-3.645648956E-1,1.804441690E0
9.738389698E0,1.663987398E0,-7.768249512E-2,2.228694677E0
9.743489698E0,1.186666727E0,-1.421785355E-1,2.628382921E0
9.748556104E0,9.674520493E-1,-3.516941071E-1,2.921878576E0
9.753618344E0,8.756990433E-1,-5.538311005E-1,2.919635534E0
9.758680583E0,2.743923664E-1,-7.255706787E-1,3.116414547E0
9.763752302E0,-9.798991680E-1,-1.282663345E0,3.753592968E0
9.768815010E0,-1.633575678E0,-1.830924988E0,3.629685402E0
9.773877719E0,-2.446883202E0,-2.188884735E0,3.302030087E0
9.778940375E0,-3.206582785E0,-2.515066147E0,2.913508415E0
9.784010635E0,-3.598673582E0,-2.575872421E0,2.737202644E0
9.789073708E0,-3.887481451E0,-2.620698929E0,2.859185457E0
9.794136781E0,-4.060466766E0,-2.582949638E0,3.335676670E0
9.799199854E0,-4.086202621E0,-2.323985100E0,3.982282162E0
9.804268969E0,-4.183188438E0,-2.011089325E0,4.416472435E0
9.809332354E0,-4.355051994E0,-1.719803810E0,4.526448250E0
9.814395740E0,-4.352990150E0,-1.372749329E0,4.377070427E0
9.819459125E0,-4.158435345E0,-1.112750053E0,4.181449413E0
9.824527354E0,-3.729960918E0,-8.627557755E-1,4.013566494E0
9.829591000E0,-3.141550064E0,-5.885229111E-1,3.960664749E0
9.834654594E0,-2.500376463E0,-1.412973404E-1,3.943530560E0
9.839718240E0,-1.913217545E0,3.406138420E-1,3.854755402E0
9.844785687E0,-1.443876266E0,9.390773773E-1,3.845346212E0
9.849849542E0,-1.098240614E0,1.597788334E0,3.993907213E0
9.854913344E0,-8.963906765E-1,2.131685734E0,4.177947998E0
9.859977146E0,-6.768639088E-1,2.551937580E0,4.241813183E0
9.865044073E0,-5.602574348E-1,2.936187267E0,4.509381294E0
9.870108031E0,-5.752110481E-1,3.199054718E0,4.827105045E0
9.875172042E0,-6.733012199E-1,3.455937386E0,5.051747322E0
9.880236000E0,-8.638577461E-1,3.620510578E0,5.170047760E0
9.885302458E0,-1.141866684E0,3.792841911E0,5.312371254E0
9.890366573E0,-1.454345942E0,3.924560308E0,5.489398956E0
9.895430635E0,-1.681021929E0,4.048809052E0,5.644809723E0
9.900494750E0,-1.816703558E0,4.164928436E0,5.799100876E0
9.905560844E0,-1.942179441E0,4.353527069E0,5.920231819E0
9.910625062E0,-1.979789972E0,4.470332146E0,6.081891060E0
9.915689229E0,-1.957424402E0,4.672499657E0,6.175843239E0
9.920753396E0,-1.869398832E0,4.820588112E0,6.184813976E0
9.925819229E0,-1.829748392E0,4.942847252E0,6.148653507E0
9.930883500E0,-1.684976339E0,5.048373222E0,6.111607552E0
9.935947771E0,-1.564300776E0,5.022070408E0,6.002508163E0
9.941012094E0,-1.372092724E0,4.964418888E0,5.874153137E0
9.946077562E0,-1.175236225E0,4.961543560E0,5.650128841E0
9.951141937E0,-1.112494469E0,4.912984848E0,5.344671726E0
9.956206260E0,-1.074610710E0,4.938279152E0,5.062208176E0
9.961270583E0,-1.143522739E0,5.037374973E0,4.763518810E0
9.966336000E0,-1.261652946E0,5.095674515E0,4.581814289E0
9.971400427E0,-1.290761948E0,5.060583115E0,4.334461212E0
9.976464854E0,-1.217401981E0,5.018013954E0,4.064000130E0
9.981529229E0,-1.075649261E0,4.962864876E0,3.708103657E0
9.986555010E0,-7.943568230E-1,4.808362007E0,3.272289038E0
9.991617458E0,-4.554908276E-1,4.574030876E0,2.697753668E0
9.996679906E0,-1.652975082E-1,4.216405392E0,1.903052926E0
1.000174241E1,-1.942968369E-2,3.640470982E0,1.034958839E0
1.000681334E1,2.415957451E-1,2.828677177E0,2.676613331E-1
1.001187621E1,6.191084385E-1,1.605478287E0,-6.405186653E-1
1.001693907E1,9.228792191E-1,-2.956333160E-1,-1.811558008E0
1.002200199E1,1.278543949E0,-2.591589928E0,-4.006792068E0
1.002690699E1,1.599801064E0,-4.764899254E0,-8.472345352E0
1.003181199E1,2.325057745E0,-7.095898628E0,-1.621551895E1
1.003671699E1,4.120538712E0,-1.009916687E1,-2.317209053E1
1.004162199E1,6.428758621E0,-1.213954735E1,-2.340833664E1
1.004672199E1,7.378880024E0,-1.201312447E1,-1.999658203E1
1.005182199E1,7.028292656E0,-1.096572876E1,-1.597230530E1
1.005687840E1,5.577416897E0,-9.205994606E0,-1.190872765E1
1.006192798E1,3.862370253E0,-7.036789894E0,-8.771702766E0
1.006702798E1,2.562774181E0,-5.143735886E0,-6.779623985E0
1.007212798E1,1.902542830E0,-3.481141090E0,-5.309768677E0
1.007722798E1,1.426793814E0,-2.129493713E0,-4.064866066E0
1.008232798E1,1.012208462E0,-9.787616730E-1,-3.372147083E0
1.008742798E1,9.259805679E-1,3.156147003E-1,-3.576641560E0
1.009252798E1,1.055562258E0,1.510157108E0,-3.425111532E0
1.009762798E1,1.350269318E0,2.372047424E0,-1.625485182E0
1.010272798E1,1.384855270E0,3.305935860E0,1.406984210E0
1.010782798E1,1.063585520E0,4.367799282E0,4.069547653E0
1.011292798E1,6.789386272E-1,5.264193535E0,5.404298782E0
1.011802798E1,5.726556778E-1,5.752938271E0,5.058173180E0
1.012312798E1,8.329756260E-1,5.761772156E0,3.559797764E0
1.012820621E1,1.565153599E0,4.858372688E0,1.983552933E0
1.013326371E1,2.808359861E0,3.180349350E0,6.853909492E-1
1.013832131E1,4.104201317E0,1.075651646E0,-5.344896317E-1
1.014337881E1,5.191267967E0,-1.064983368E0,-1.344952106E0
1.014847881E1,5.877300262E0,-3.300152779E0,-1.491404533E0
1.015356459E1,6.011512756E0,-5.783287048E0,-1.167136669E0
1.015862553E1,5.804788113E0,-8.494276047E0,-7.558081150E-1
1.016368647E1,5.541060925E0,-1.116374111E1,-1.853075027E-1
1.016878647E1,5.110906601E0,-1.319725037E1,9.927921295E-1
1.017388647E1,4.961629391E0,-1.453228092E1,2.366841316E0
1.017898647E1,4.726925373E0,-1.421353626E1,3.250106335E0
1.018408647E1,3.363542080E0,-1.156086636E1,3.286149502E0
1.018917808E1,9.269828796E-1,-7.209707260E0,2.561109304E0
1.019424376E1,-1.093194962E0,-2.974836349E0,1.833385944E0
1.019930933E1,-2.270052910E0,-2.050113678E-1,1.312324405E0
1.020437501E1,-2.928973198E0,1.579051495E0,1.623159647E0
1.020943642E1,-3.286314249E0,2.937921524E0,3.481619596E0
1.021450188E1,-3.577621460E0,4.265740871E0,6.314838409E0
1.021956730E1,-3.741223812E0,5.278117180E0,9.084308624E0
1.022463272E1,-4.101634026E0,5.997286797E0,1.064443493E1
1.022953756E1,-4.257760525E0,6.286201477E0,1.098194885E1
1.023459501E1,-4.121897221E0,6.050886154E0,1.080498505E1
1.023965241E1,-3.807411194E0,5.520572662E0,1.039008522E1
1.024470985E1,-3.377614021E0,4.757060528E0,9.460548401E0
1.024979579E1,-2.971974850E0,3.855295658E0,8.444046974E0
1.025485465E1,-2.549407959E0,2.899756432E0,7.629822731E0
1.025991350E1,-2.110918045E0,1.832031727E0,6.865929127E0
1.026497235E1,-1.796179652E0,6.557531357E-1,6.054147720E0
1.026993637E1,-1.654583812E0,-6.262435913E-1,5.189728737E0
1.027499043E1,-1.460382581E0,-1.870153427E0,4.440054417E0
1.028004454E1,-1.305746436E0,-3.073142052E0,3.782360077E0
1.028509866E1,-1.334850192E0,-4.135789871E0,3.134350777E0
1.029019866E1,-1.528777957E0,-4.757308960E0,2.388104916E0
1.029529866E1,-2.002040148E0,-4.981585503E0,1.848252892E0
1.030039866E1,-2.637917042E0,-4.765413284E0,1.673629522E0
1.030549866E1,-3.146665812E0,-4.261200905E0,1.844796181E0
1.031059866E1,-3.252678871E0,-3.458214760E0,2.283698797E0
1.031569866E1,-3.058515549E0,-2.742631912E0,2.811181545E0
1.032079866E1,-2.634602547E0,-2.471985817E0,2.989688158E0
1.032589178E1,-2.201417923E0,-2.334499359E0,2.726225376E0
1.033082933E1,-1.899373770E0,-2.072046280E0,2.076771021E0
1.033588751E1,-1.551310897E0,-1.703084946E0,1.112475872E0
1.034094569E1,-1.128613591E0,-1.327783585E0,6.445670128E-2
1.034600386E1,-7.216203213E-1,-9.837827682E-1,-8.660843372E-1
1.035108751E1,-2.438366413E-1,-6.180448532E-1,-1.530878782E0
1.035614699E1,3.568148613E-1,-3.459291458E-1,-1.921418071E0
1.036120647E1,9.692568779E-1,-6.790924072E-2,-2.051194191E0
1.036626595E1,1.558628559E0,1.476821899E-1,-2.127461195E0
1.037134579E1,1.994612932E0,3.139963150E-1,-2.140538216E0
1.037640626E1,2.209079981E0,4.490528107E-1,-2.035352945E0
1.038146673E1,2.159229040E0,6.339244843E-1,-1.729937792E0
1.038652720E1,1.974805355E0,8.973884583E-1,-1.291153908E0
1.039162720E1,1.762061596E0,1.201670647E0,-8.646124601E-1
1.039672720E1,1.511712551E0,1.508934498E0,-5.090114474E-1
1.040182720E1,1.190721989E0,1.872360706E0,-9.866023809E-2
1.040692720E1,9.090948105E-1,2.225303173E0,3.036471903E-1
1.041202012E1,7.093219757E-1,2.390972614E0,5.574446917E-1
1.041708543E1,6.234192848E-1,2.374182224E0,6.167773008E-1
1.042215069E1,7.312469482E-1,2.194004536E0,7.021725178E-1
