"Time (s)","Linear Acceleration x (m/s^2)","Linear Acceleration y (m/s^2)","Linear Acceleration z (m/s^2)"
1.669578100E-2,1.202673912E-1,-5.733537674E-2,-1.841711998E-1
3.274440600E-2,1.023108959E-1,-1.184558868E-2,1.929154396E-1
4.551021800E-2,-4.399759769E-1,2.970061302E-1,4.850082397E-1
5.685062400E-2,-3.757560253E-1,5.154466629E-1,9.469714165E-1
6.753732700E-2,-4.763650894E-2,7.010073662E-1,1.268519402E0
7.796667900E-2,-2.667379379E-2,8.676867485E-1,1.243652821E0
8.813135500E-2,4.321479797E-2,8.368830681E-1,1.064359665E0
9.820169300E-2,2.026009560E-2,7.765550613E-1,1.050633907E0
1.081928620E-1,4.131555557E-3,6.680703163E-1,1.234439373E0
1.187409460E-1,9.696531296E-2,4.293398857E-1,1.358606339E0
1.285444880E-1,1.053111553E-1,1.632151604E-1,1.305680275E0
1.384152590E-1,8.047509193E-2,4.176616669E-3,1.128154278E0
1.483216450E-1,5.448031425E-2,-1.735529900E-1,7.833089828E-1
1.583678380E-1,5.135974884E-1,-3.788785934E-1,6.571760178E-1
1.687499340E-1,5.495467186E-1,-3.480949402E-1,5.379805565E-1
1.785419820E-1,3.829257488E-1,-9.572553635E-2,4.229354858E-1
1.884500060E-1,2.957668304E-1,8.404731750E-3,5.313172340E-1
1.983155180E-1,3.075821400E-1,3.825092316E-2,7.183327675E-1
2.083167740E-1,3.059275150E-1,1.779351234E-1,8.130545616E-1
2.182884020E-1,2.310345173E-1,2.257404327E-1,8.394007683E-1
2.282497160E-1,7.341027260E-2,1.742057800E-1,8.824434280E-1
2.388013730E-1,-1.728794575E-1,4.280328751E-2,8.651757240E-1
2.485812020E-1,-2.618217468E-1,3.556251526E-3,6.642904282E-1
2.584361160E-1,-2.255661488E-1,-3.227467537E-1,5.330595970E-1
2.683265730E-1,2.874541283E-2,-5.009164810E-1,2.480816841E-1
2.784028020E-1,-3.425526619E-1,-4.810395241E-1,-2.242450714E-1
2.885959160E-1,-7.916644812E-1,-5.369038582E-1,-6.979570389E-1
2.983964730E-1,-1.193021417E0,-6.877279282E-1,-7.171506882E-1
3.087837520E-1,-2.293910265E0,-9.739480019E-1,-8.025856018E-1
3.185153910E-1,-2.216103315E0,-9.676198959E-1,-5.064659119E-1
3.284447110E-1,-3.414376974E0,-7.844915390E-1,-1.532454491E-1
3.387618710E-1,-3.697609901E0,-8.214163780E-1,2.228040695E-1
3.484899510E-1,-3.692575932E0,-1.014706612E0,5.531792641E-1
3.584784910E-1,-3.591586590E0,-1.051158905E0,7.989687920E-1
3.683942610E-1,-3.500540972E0,-7.746529579E-1,1.042729378E0
3.784571460E-1,-3.140805006E0,-6.324405670E-1,1.257073402E0
3.890595880E-1,-2.560414553E0,-5.244984627E-1,1.498227119E0
3.986778090E-1,-2.116310120E0,-3.232698441E-1,1.582483292E0
4.087749200E-1,-1.709989548E0,-2.223820686E-1,1.509332180E0
4.185104750E-1,-1.442829370E0,-2.730908394E-1,1.376158237E0
4.285177530E-1,-1.346518517E0,-2.805318832E-1,1.098035812E0
4.383828920E-1,-1.365551949E0,-3.455657959E-1,7.176632881E-1
4.483034610E-1,-1.346058488E0,-4.333744049E-1,2.950768471E-1
4.588197460E-1,-1.301553607E0,-4.331364632E-1,3.448963165E-3
4.685843880E-1,-1.292981982E0,-3.516106606E-1,-2.567887306E-1
4.785902090E-1,-1.351073980E0,-1.909689903E-1,-6.215558052E-1
4.884546200E-1,-7.857603431E-1,-1.297674179E-1,-1.045516968E0
4.983398250E-1,-6.109812856E-1,-1.741948128E-1,-1.253578186E0
5.105769280E-1,-4.056434035E-1,-2.013692856E-1,-1.505308628E0
5.283590310E-1,-3.120133281E-1,-2.558116913E-1,-1.600441456E0
5.382520310E-1,-4.109891057E-1,-2.096185684E-1,-1.544261932E0
5.481660310E-1,-7.834073305E-1,-1.261277199E-1,-1.655101299E0
5.582040310E-1,-9.495702982E-1,-1.393380165E-1,-1.780142784E0
5.695890310E-1,-9.313924313E-1,-2.025899887E-1,-1.826035023E0
5.782480310E-1,-9.080125093E-1,-2.431859970E-1,-1.700512886E0
5.882410310E-1,-8.652369976E-1,-2.094478607E-1,-1.392771244E0
5.982470310E-1,-7.928892374E-1,-2.022237778E-1,-1.114585400E0
6.085200310E-1,-7.204840183E-1,-1.685357094E-1,-8.549060822E-1
6.183880310E-1,-6.242394447E-1,-1.287288666E-1,-5.088324547E-1
6.282370310E-1,-4.815745950E-1,-8.524608612E-2,-1.466445923E-1
6.384110310E-1,-3.101986945E-1,-1.171588898E-3,5.432415009E-2
6.485890310E-1,-1.077703536E-1,1.022343636E-1,2.101058960E-1
6.582100310E-1,3.659677505E-2,1.786212921E-1,2.349882126E-1
6.682040310E-1,1.261741817E-1,2.642574310E-1,9.998512268E-2
6.783800310E-1,1.013630331E-1,3.599300385E-1,-1.133699417E-1
6.885910310E-1,1.728957891E-2,4.187860489E-1,-1.632785797E-1
6.984460310E-1,-8.407878876E-2,4.769911766E-1,-1.431179047E-2
7.083140310E-1,-1.442976445E-1,5.808224678E-1,2.106943130E-1
7.212250310E-1,-2.727013826E-2,7.602353096E-1,4.802207947E-1
7.382300310E-1,8.667445183E-2,6.197199821E-1,6.863088608E-1
7.481890310E-1,1.786332428E-1,6.686720848E-1,6.855630875E-1
7.581690310E-1,4.472678900E-1,7.164683342E-1,8.116893768E-1
7.684410310E-1,5.498421192E-1,7.477431297E-1,8.514490128E-1
7.782580310E-1,5.194140673E-1,7.876458168E-1,8.478231430E-1
7.882250310E-1,3.500905633E-1,8.389301300E-1,9.776601791E-1
7.982280310E-1,1.612268686E-1,8.593025208E-1,1.108062744E0
8.088390310E-1,-1.421982050E-2,9.534659386E-1,1.290737152E0
8.182760310E-1,-1.495630145E-1,1.089570045E0,1.480403900E0
8.290190310E-1,-1.314635873E-1,1.163809776E0,2.033175468E0
8.382250310E-1,-1.512065232E-1,1.279838562E0,2.034849167E0
8.482170310E-1,-2.557501197E-2,1.428421021E0,2.220374107E0
8.584420310E-1,2.127687931E-1,1.501069546E0,2.393231392E0
8.683630310E-1,8.672370315E-1,1.518190384E0,2.870834351E0
8.782290310E-1,1.207561493E0,1.372167587E0,2.952551842E0
8.884460310E-1,1.622200251E0,1.123413086E0,2.993289948E0
8.983280310E-1,1.960008860E0,8.717675209E-1,2.854600906E0
9.089390310E-1,2.207502127E0,5.368304253E-1,2.529276848E0
9.182500310E-1,2.300321579E0,3.576087952E-2,2.182966232E0
9.283150310E-1,2.142264843E0,-4.836888313E-1,1.702807426E0
9.384240310E-1,1.721677780E0,-9.472999573E-1,1.121309280E0
9.482960310E-1,1.168558121E0,-1.437964916E0,6.575012207E-1
9.589080310E-1,5.736078620E-1,-1.862317324E0,3.697061539E-1
9.682560310E-1,-1.755547523E-2,-2.208158731E0,1.506824493E-1
9.783300310E-1,-4.875231385E-1,-2.482320547E0,-6.453609467E-2
9.885010310E-1,-8.940181732E-1,-2.670733690E0,-2.277812958E-1
9.982420310E-1,-1.247213483E0,-2.681531668E0,-3.447933197E-1
1.008388031E0,-1.482597709E0,-2.650592804E0,-5.441570282E-1
1.018326031E0,-1.613312960E0,-2.579505682E0,-8.291134834E-1
1.028806031E0,-1.617038488E0,-2.474117041E0,-1.063489437E0
1.038334031E0,-1.506196260E0,-2.390877485E0,-1.359455109E0
1.048558031E0,-1.222083926E0,-2.364459753E0,-1.497592449E0
1.059351031E0,-8.598988056E-1,-2.282083273E0,-1.511099339E0
1.068277031E0,-3.595106602E-1,-2.149204969E0,-1.483566284E0
1.078455031E0,2.377724349E-1,-2.081158161E0,-1.248102188E0
1.088238031E0,8.279944062E-1,-2.041314602E0,-9.775018692E-1
1.098231031E0,1.298695803E0,-1.991084337E0,-4.600315094E-1
1.109659031E0,1.560987115E0,-1.865627289E0,4.680013657E-2
1.118398031E0,1.629421592E0,-1.782644987E0,5.596256256E-1
1.128966031E0,1.469983459E0,-1.709527969E0,9.383516312E-1
1.138278031E0,1.071442842E0,-1.613748789E0,1.138855934E0
1.148297031E0,5.110319853E-1,-1.446947098E0,1.120521545E0
1.158350031E0,-2.242736518E-3,-1.251116753E0,8.294801712E-1
1.168258031E0,-3.599742353E-1,-9.141173363E-1,4.805078506E-1
1.178386031E0,-4.306360483E-1,-6.396055222E-1,-1.427078247E-2
1.188358031E0,-2.409060299E-1,-5.558896065E-1,-5.242743492E-1
1.198274031E0,2.318885922E-2,-4.763827324E-1,-9.928746223E-1
1.208239031E0,2.400726378E-1,-3.349952698E-1,-1.375544548E0
1.218339031E0,4.304100573E-1,-2.196459770E-1,-1.656694889E0
1.228214031E0,6.094814539E-1,-1.988115311E-1,-1.895133495E0
1.238216031E0,6.893771291E-1,-2.232275009E-1,-2.053816795E0
1.248906031E0,6.218962073E-1,-2.118287086E-1,-2.085372448E0
1.258185031E0,4.723048806E-1,-1.722192764E-1,-2.051986217E0
1.268482031E0,2.811059952E-1,-1.685342789E-1,-1.985036850E0
1.279483031E0,1.091962904E-1,-1.300840378E-1,-1.846124649E0
1.288298031E0,-6.063681841E-2,-1.285729408E-1,-1.646903515E0
1.298181031E0,-1.383347809E-1,-1.003913879E-1,-1.268152714E0
1.308263031E0,-1.661564708E-1,-2.811861038E-2,-8.564510345E-1
1.318229031E0,-1.470028758E-1,-6.044054031E-2,-2.004394531E-1
1.328215031E0,-1.445502043E-2,-6.203746796E-2,3.524179459E-1
1.338394031E0,7.464060187E-2,-1.180434227E-1,6.636276245E-1
1.349156031E0,1.392625570E-1,-5.217123032E-2,1.115492821E0
1.358242031E0,2.520578206E-1,8.482360840E-2,1.054546356E0
1.368232031E0,5.072093010E-1,1.066589355E-1,1.009933472E0
1.378227031E0,7.480171919E-1,1.957516670E-1,1.232590675E0
1.388567031E0,9.497920275E-1,2.964816093E-1,9.659748077E-1
1.399208031E0,5.531351566E-1,4.383082390E-1,1.327018738E0
1.408237031E0,-8.105928898E-1,7.883453369E-1,1.586876869E0
1.418356031E0,-1.756853342E0,1.859423161E0,2.083592415E0
1.428244031E0,-1.567377806E0,1.152490616E0,2.325317383E0
1.438226031E0,-1.025330305E0,6.295967102E-2,2.279723167E0
1.448297031E0,-6.859564185E-1,2.587599754E-1,2.387922287E0
1.458212031E0,-2.873429656E-1,8.918619156E-2,2.474366188E0
1.468683031E0,-1.704043746E-1,2.784280777E-1,2.360935211E0
1.478467031E0,-1.866275072E-2,5.921673775E-1,2.296726227E0
1.488223031E0,2.590427697E-1,1.057036400E0,3.363647461E0
1.498295031E0,1.782124043E-1,6.877245903E-1,1.417524338E0
1.508264031E0,-2.514857054E-1,1.111992836E0,-8.121261597E-1
1.518566031E0,-3.996052146E-1,1.447158337E0,-3.084297180E-1
1.528253031E0,-4.388144612E-1,1.646937370E0,3.828125000E-1
1.538179031E0,-3.917440176E-1,1.932666302E0,5.137286186E-1
1.548389031E0,-1.014924645E-1,1.893590927E0,4.331254959E-2
1.558323031E0,4.504894316E-1,1.191517830E0,-6.366634369E-2
1.573363031E0,6.896159053E-1,5.179805756E-1,2.829847336E-1
1.588257031E0,8.441988230E-1,-1.003603458E0,1.232042789E0
1.598276031E0,1.348803043E0,-2.521861315E0,2.207414627E0
1.608267031E0,2.445705414E0,-4.642694473E0,3.072411537E0
1.620130031E0,2.829745293E0,-5.284943104E0,2.570421219E0
1.628332031E0,2.259296179E0,-4.556031704E0,1.494136810E0
1.638385031E0,6.012519598E-1,-2.984951258E0,1.092967033E0
1.648245031E0,-1.190968990E0,-1.351539135E0,9.837770462E-1
1.658337031E0,-2.793807030E0,-1.556372643E-1,8.509635925E-1
1.669046031E0,-3.983057976E0,1.992974281E-1,2.995481491E-1
1.678256031E0,-4.459239006E0,-2.119507790E-1,-7.290487289E-1
1.689323031E0,-4.104619026E0,-1.232378006E0,-1.787471294E0
1.698288031E0,-3.354301929E0,-2.173604727E0,-2.280585289E0
1.708225031E0,-2.679343700E0,-2.618731499E0,-2.243694782E0
1.718249031E0,-2.065481186E0,-2.699242353E0,-2.291603088E0
1.728208031E0,-1.491543889E0,-2.457532644E0,-2.099119663E0
1.738635031E0,-1.148590684E0,-2.084914684E0,-1.550500393E0
1.748257031E0,-1.001101971E0,-1.724737167E0,-9.243421555E-1
1.758252031E0,-8.729929924E-1,-1.471159458E0,7.761478424E-3
1.768176031E0,-5.209836960E-1,-1.581888199E0,8.004479408E-1
1.778282031E0,-6.432306767E-2,-1.922019243E0,1.362333775E0
1.788510031E0,1.353912354E-1,-2.029268503E0,1.723393917E0
1.798194031E0,5.958074331E-2,-1.986641169E0,1.943635941E0
1.808229031E0,-6.320238113E-2,-1.951642513E0,2.110676765E0
1.818246031E0,-1.210376620E-1,-1.872080803E0,2.194305420E0
1.828272031E0,-2.902086973E-1,-1.762790442E0,2.010754585E0
1.838203031E0,-4.034987688E-1,-1.562402487E0,1.518672943E0
1.848260031E0,-3.221572638E-1,-1.234856844E0,7.894639969E-1
1.858770031E0,-2.247976065E-1,-7.922577858E-1,1.484651566E-1
1.868284031E0,-1.821519136E-1,-3.652930260E-1,-1.001501083E-1
1.878238031E0,-7.261812687E-2,-1.245603561E-1,-3.470430374E-1
1.888213031E0,1.176675558E-1,-1.424436569E-1,-7.477335930E-1
1.898167031E0,3.675111532E-1,-2.744917870E-1,-1.239098072E0
1.908377031E0,4.145094156E-1,-3.257656097E-1,-1.771165848E0
1.920983031E0,2.571593523E-1,-2.421917915E-1,-1.817594528E0
1.938284031E0,-2.268886566E-2,-1.315116882E-1,-1.301045895E0
1.949150031E0,-5.399584770E-2,-1.865038872E-1,-9.127540588E-1
1.958225031E0,-1.167767048E-1,-1.797142029E-1,-4.584693909E-1
1.968232031E0,-4.270382524E-1,-2.085471153E-1,1.005353928E-1
1.978207031E0,-5.816412568E-1,-2.076492310E-1,5.199556351E-1
1.988587031E0,-3.643774390E-1,-1.565194130E-1,6.137390137E-1
1.998198031E0,-1.060235500E-2,-1.759943962E-1,5.550889969E-1
2.008362031E0,3.716522455E-2,-2.588157654E-1,3.924980164E-1
2.021402031E0,8.240967989E-2,-4.889583588E-2,5.184755325E-1
2.030299031E0,1.792553067E-1,1.960434914E-1,5.849227905E-1
2.048234031E0,2.630553246E-1,1.335191727E-1,3.863220215E-1
2.058451031E0,1.276220083E-1,2.679224014E-1,2.416858673E-1
2.068177031E0,-8.919161558E-2,3.507890701E-1,1.704120636E-2
2.079517031E0,-2.047150731E-1,3.814973831E-1,-2.954730988E-1
2.088353031E0,-1.565294266E-1,3.315744400E-1,-5.417742729E-1
2.098281031E0,-2.289226055E-1,3.467354774E-1,-1.110067368E-1
2.108367031E0,-2.477126122E-1,3.294587135E-1,2.825155258E-1
2.118230031E0,-3.089271188E-1,3.667926788E-1,8.091373444E-1
2.128158031E0,-4.783485532E-1,4.279713631E-1,1.203794479E0
2.138340031E0,-5.530414581E-1,5.306453705E-1,1.491996765E0
2.148705031E0,-4.862109423E-1,7.788796425E-1,2.197532654E0
2.158230031E0,-2.922923565E-1,9.207978249E-1,2.394566536E0
2.168238031E0,2.299799919E-1,1.139793873E0,2.508896828E0
2.178207031E0,8.210562468E-1,1.387643814E0,2.660370827E0
2.188460031E0,1.396023989E0,1.571658611E0,2.797765732E0
2.198365031E0,1.839089870E0,1.675006390E0,3.001850128E0
2.208240031E0,2.123875618E0,1.720274448E0,3.196704865E0
2.218474031E0,2.381198883E0,1.612175941E0,3.415780067E0
2.228265031E0,2.564377546E0,1.203255177E0,3.356120110E0
2.238284031E0,2.686652660E0,6.461172104E-1,3.211238861E0
2.248151031E0,2.668370724E0,-4.267692566E-2,3.058403969E0
2.258202031E0,2.367822886E0,-5.562381744E-1,2.927933693E0
2.268310031E0,1.910588264E0,-9.974803925E-1,2.685308456E0
2.278266031E0,1.423251867E0,-1.358930588E0,2.348664284E0
2.288257031E0,9.470204711E-1,-1.708974361E0,1.897319794E0
2.298436031E0,6.058553457E-1,-2.088145256E0,1.330805779E0
2.308240031E0,3.291520476E-1,-2.313712597E0,8.324060440E-1
2.318522031E0,-2.895915508E-2,-2.361142874E0,2.627067566E-1
2.328397031E0,-3.806872368E-1,-2.317487717E0,-3.282871246E-1
2.338167031E0,-6.080956459E-1,-2.260567904E0,-9.233207703E-1
2.348518031E0,-7.122467756E-1,-2.212975979E0,-1.589463711E0
2.358410031E0,-6.415759325E-1,-2.073443651E0,-2.142597675E0
2.369097031E0,-2.841861248E-1,-1.903735876E0,-2.472592831E0
2.378233031E0,2.848086357E-1,-1.811331511E0,-2.576697350E0
2.388361031E0,9.050218463E-1,-1.796652317E0,-2.503706455E0
2.398245031E0,1.414595842E0,-1.756479502E0,-2.152528763E0
2.408223031E0,1.771406412E0,-1.670217752E0,-1.695980072E0
2.418662031E0,1.871020079E0,-1.639492035E0,-1.200691223E0
2.428278031E0,1.631518126E0,-1.580952644E0,-6.446743011E-1
2.438248031E0,1.103169203E0,-1.567676544E0,-2.403745651E-1
2.448250031E0,4.974179864E-1,-1.516258717E0,-7.977485657E-3
2.458203031E0,8.964300156E-3,-1.291903019E0,8.380126953E-2
2.468336031E0,-2.704916000E-1,-1.035997152E0,2.571868896E-2
2.478233031E0,-4.125905037E-2,-6.662549973E-1,-6.512112617E-1
2.488833031E0,2.489284873E-1,-4.409995079E-1,-9.839634895E-1
2.498243031E0,1.811763048E-1,-4.994010925E-1,-1.299189568E0
2.508279031E0,-3.274872303E-1,-8.353929520E-1,-1.654128075E0
2.518189031E0,-6.012614965E-1,-2.916355133E-1,-2.079382420E0
2.528358031E0,-1.572352648E-1,6.841382980E-1,-1.970916271E0
2.539154031E0,8.069610596E-1,4.762840271E-1,-1.971070766E0
2.548200031E0,1.361837029E0,-3.517031670E-1,-2.188503265E0
2.558307031E0,1.223211408E0,-4.640789032E-1,-2.027133465E0
2.568216031E0,7.876172066E-1,9.223508835E-2,-1.653455734E0
2.578348031E0,8.326941729E-1,1.819963455E-1,-1.688120365E0
2.589788031E0,1.079774857E0,-1.062684059E-1,-1.486852646E0
2.598253031E0,1.058112860E0,-1.464262009E-1,-1.077126980E0
2.608247031E0,7.814396620E-1,-3.385543823E-5,-7.045974731E-1
2.618216031E0,5.183156729E-1,1.045227051E-2,-4.474887848E-1
2.628250031E0,3.726111650E-1,-4.886627197E-3,-3.719034195E-1
2.639130031E0,2.571213841E-1,5.508279800E-2,-3.475379944E-1
2.648240031E0,1.919190884E-1,8.519506454E-2,-3.393049240E-1
2.658349031E0,2.371193767E-1,8.584165573E-2,-3.453626633E-1
2.668476031E0,3.237672448E-1,1.333293915E-1,-1.809921265E-1
2.678233031E0,5.229269266E-1,2.406458855E-1,-5.314731598E-2
2.688149031E0,7.944158912E-1,3.915801048E-1,2.816677094E-2
2.698203031E0,8.766095638E-1,4.885559082E-1,1.296396255E-1
2.709135031E0,8.818538189E-1,6.367511749E-1,2.362031937E-1
2.718307031E0,8.811231852E-1,6.610245705E-1,2.614679337E-1
2.728292031E0,6.614668369E-1,6.699404716E-1,3.755693436E-1
2.738208031E0,4.765462279E-1,7.017035484E-1,4.155769348E-1
2.748167031E0,2.909275889E-1,6.997699738E-1,6.357336044E-1
2.758959031E0,1.422021389E-1,6.377062798E-1,7.748899460E-1
2.768349031E0,-1.552152634E-2,6.438045502E-1,9.078502655E-1
2.778222031E0,-1.667370796E-1,8.166627884E-1,9.878320694E-1
2.788191031E0,-1.625292301E-1,1.038245201E0,1.045334816E0
2.798277031E0,-3.295588493E-2,1.208703518E0,1.142853737E0
2.808264031E0,1.516377926E-1,1.351048470E0,1.298368454E0
2.818669031E0,2.719722390E-1,1.541487694E0,1.443914413E0
2.828845031E0,3.282124996E-1,1.687117577E0,1.577202797E0
2.838296031E0,1.886187792E-1,1.675631046E0,1.621206284E0
2.848206031E0,1.221095324E-1,1.975275517E0,1.696988106E0
2.858405031E0,2.224345207E-1,1.927372932E0,1.666689873E0
2.868262031E0,1.368256807E-1,1.777698517E0,1.579112053E0
2.878460031E0,1.313291788E-1,1.610736847E0,1.532068253E0
2.888475031E0,2.561389208E-1,1.232173443E0,1.548487663E0
2.898304031E0,4.385135770E-1,7.360019684E-1,1.789339066E0
2.908201031E0,5.980982780E-1,1.728310585E-1,2.290534019E0
2.918180031E0,6.581569314E-1,-4.916546345E-1,2.970328331E0
2.928392031E0,5.199121833E-1,-1.193030357E0,3.595168114E0
2.938254031E0,1.642476320E-1,-1.613452673E0,4.208735466E0
2.948905031E0,-3.564103842E-1,-1.866859674E0,4.201194763E0
2.958266031E0,-7.063105106E-1,-2.213308811E0,3.839716911E0
2.968179031E0,-9.677962065E-1,-2.373751879E0,3.394986153E0
2.978692031E0,-1.154143095E0,-2.322132826E0,2.835243225E0
2.988257031E0,-1.124520421E0,-2.189587116E0,2.124353409E0
2.998271031E0,-9.191321135E-1,-2.021312237E0,1.228548050E0
3.008452031E0,-6.071097851E-1,-1.925513983E0,-5.891780853E-1
3.018245031E0,3.091573715E-3,-1.574423313E0,-1.198884964E0
3.028252031E0,2.700682878E-1,-1.537059307E0,-1.478346825E0
3.038218031E0,5.297781825E-1,-1.520419121E0,-1.716481686E0
3.048431031E0,7.834479809E-1,-1.596377611E0,-1.863921642E0
3.058232031E0,9.383367300E-1,-1.655099630E0,-1.715692043E0
3.070484031E0,9.374197721E-1,-1.663166523E0,-1.486206532E0
3.088317031E0,6.941574216E-1,-1.711244583E0,-9.068889618E-1
3.099712031E0,5.343719125E-1,-1.782100439E0,-5.149521828E-1
3.108219031E0,3.832653165E-1,-1.832980871E0,7.005691528E-2
3.118200031E0,2.234036922E-1,-1.759953499E0,4.079647064E-1
3.128181031E0,1.234795451E-1,-1.657413244E0,5.945730209E-1
3.138220031E0,4.384160042E-2,-1.529798508E0,6.211910248E-1
3.148228031E0,4.110050201E-2,-1.384594679E0,4.654159546E-1
3.158190031E0,1.349067092E-1,-1.333254099E0,8.875846863E-2
3.168174031E0,3.012933135E-1,-9.584345818E-1,-1.494169235E-1
3.178268031E0,6.497473121E-1,-7.829136848E-1,-7.144308090E-1
3.190010031E0,8.323258162E-1,-7.223598957E-1,-1.086624146E0
3.198205031E0,8.943127394E-1,-5.786471367E-1,-1.426262379E0
3.208772031E0,8.872729540E-1,-4.885859489E-1,-1.722194195E0
3.218198031E0,8.225726485E-1,-4.547438622E-1,-1.933972359E0
3.229021031E0,6.206095219E-1,-4.159059525E-1,-2.034588814E0
3.238231031E0,3.836914301E-1,-3.006782532E-1,-2.159557343E0
3.248272031E0,3.992426395E-1,-1.144733429E-1,-2.175916195E0
3.258229031E0,4.372646213E-1,-5.462169647E-2,-2.027518749E0
3.268265031E0,4.948362410E-1,8.358669281E-2,-1.887334347E0
3.278452031E0,5.026578903E-1,1.912240982E-1,-1.753064632E0
3.288197031E0,7.409839630E-1,2.914385796E-1,-1.734034538E0
3.298305031E0,8.937314749E-1,3.246774673E-1,-1.374475956E0
3.308252031E0,8.565813303E-1,4.011645317E-1,-1.013419628E0
3.318256031E0,7.833889127E-1,4.423499107E-1,-7.543911934E-1
3.328158031E0,6.660777926E-1,3.955731392E-1,-4.423608780E-1
3.338371031E0,4.530873299E-1,4.278430939E-1,-2.398881912E-1
3.349283031E0,2.528541088E-1,4.285025597E-1,-5.047893524E-2
3.358207031E0,4.108083248E-2,4.161443710E-1,1.165046692E-1
3.368210031E0,-1.493760347E-1,4.593520164E-1,3.259840012E-1
3.378338031E0,-2.703009248E-1,4.532957077E-1,4.614210129E-1
3.388309031E0,-2.786629200E-1,4.303450584E-1,6.037502289E-1
3.399226031E0,-2.714424431E-1,4.682855606E-1,7.203283310E-1
3.408405031E0,-2.468792796E-1,4.781651497E-1,8.807830811E-1
3.418355031E0,-2.021822035E-1,4.854903221E-1,1.116091728E0
3.428626031E0,-1.791397631E-1,4.489698410E-1,1.208666801E0
3.438231031E0,-2.112368643E-1,4.345149994E-1,1.335942268E0
3.448198031E0,-3.243626356E-1,4.861660004E-1,1.514295578E0
3.458209031E0,-4.448727369E-1,5.679750443E-1,1.733413696E0
3.470413031E0,-4.811733067E-1,7.742643356E-1,2.373090744E0
3.478479031E0,-5.178080797E-1,7.758173943E-1,2.370985985E0
3.488364031E0,-3.689170480E-1,8.818626404E-1,2.833116531E0
3.498208031E0,-1.478062868E-1,1.008159637E0,3.227973938E0
3.508492031E0,1.596796960E-1,1.150130749E0,3.460782051E0
3.520228031E0,1.113694310E0,1.179922104E0,3.471451759E0
3.528294031E0,1.040374875E0,1.208141804E0,3.456432343E0
3.538364031E0,1.675240517E0,1.075297356E0,3.470637321E0
3.548212031E0,2.515995741E0,6.798062325E-1,3.644248962E0
3.558206031E0,3.775898457E0,-2.822384834E-1,3.725218773E0
3.568194031E0,3.821648598E0,-6.462149620E-1,3.303575516E0
3.578438031E0,3.544797421E0,-1.255802155E0,2.531136513E0
3.589216031E0,2.843146801E0,-1.716727495E0,1.787024498E0
3.598224031E0,1.695105791E0,-1.895143509E0,9.874820709E-1
3.608348031E0,7.386668324E-1,-2.114109993E0,3.419055939E-1
3.618231031E0,-3.866064548E-2,-2.317823410E0,-1.334028244E-1
3.628341031E0,-7.467144728E-1,-2.289884329E0,-7.971839905E-1
3.638910031E0,-1.209656715E0,-2.181805134E0,-1.527229786E0
3.648257031E0,-1.357652426E0,-2.080296755E0,-2.133975029E0
3.658192031E0,-1.214629292E0,-2.005306244E0,-2.678302288E0
3.668273031E0,-8.062416911E-1,-1.908858776E0,-3.117886543E0
3.678495031E0,-2.176186591E-1,-1.854340076E0,-3.284375191E0
3.688661031E0,3.894149065E-1,-1.800170660E0,-3.101143360E0
3.698245031E0,9.204187393E-1,-1.759446621E0,-2.810208797E0
3.708863031E0,1.299964666E0,-1.710512638E0,-2.302856445E0
3.718247031E0,1.551683664E0,-1.711292982E0,-1.703810215E0
3.728226031E0,1.583687782E0,-1.706143856E0,-1.310127258E0
3.738181031E0,1.434848547E0,-1.657884121E0,-1.173066139E0
3.748266031E0,1.136995792E0,-1.569561005E0,-1.245719433E0
3.758312031E0,7.678164244E-1,-1.472425222E0,-1.343891621E0
3.768429031E0,3.734228611E-1,-1.248262405E0,-1.350855350E0
3.778206031E0,6.678301096E-2,-9.809811115E-1,-1.449971199E0
3.788255031E0,-5.640351772E-2,-7.304108143E-1,-1.576832771E0
3.798207031E0,-1.015804708E-2,-5.635442734E-1,-1.827689648E0
3.808407031E0,7.714688778E-2,-4.125475883E-1,-2.072379112E0
3.818213031E0,1.584646106E-1,-2.446432114E-1,-2.362984657E0
3.828855031E0,2.640801668E-1,-1.185698509E-1,-2.689074516E0
3.838279031E0,4.458054304E-1,-3.989696503E-2,-2.829033852E0
3.848279031E0,6.290756464E-1,1.452527046E-1,-2.819952011E0
3.858339031E0,6.836674213E-1,1.522502899E-1,-2.909553051E0
3.868469031E0,6.653790474E-1,3.803157806E-2,-2.755128384E0
3.878392031E0,4.686811268E-1,1.453843117E-1,-2.356432915E0
3.888438031E0,1.047954559E-1,2.138166428E-1,-1.927519798E0
3.898178031E0,-2.550326586E-1,2.629289627E-1,-1.445945740E0
3.908395031E0,-4.898973703E-1,4.157443047E-1,-1.161347389E0
3.918232031E0,-4.672156572E-1,5.560832024E-1,-1.140002728E0
3.928165031E0,-1.631338000E-1,7.170386314E-1,-1.178488731E0
3.938228031E0,2.355137765E-1,7.558257580E-1,-8.553552628E-1
3.948183031E0,4.625894427E-1,6.893787384E-1,-4.298572540E-1
3.958529031E0,6.165017486E-1,6.914718151E-1,-1.923379898E-1
3.968234031E0,6.157574654E-1,7.455842495E-1,-1.065502167E-1
3.978459031E0,5.201842785E-1,8.369204998E-1,-1.915216446E-1
3.989331031E0,5.654789805E-1,6.755096912E-1,-7.201910019E-1
3.998740031E0,3.068695664E-1,7.335789204E-1,-9.570455551E-1
4.008238031E0,-1.753064394E-1,8.131592274E-1,-8.312416077E-1
4.018220031E0,-3.100416064E-1,1.735134125E-1,-6.492443085E-1
4.028301031E0,6.511104107E-2,-8.323762417E-1,7.336330414E-2
4.038447031E0,-1.126615644E0,3.204269409E-1,8.243045807E-1
4.048630031E0,-1.884696603E0,1.232184410E0,1.978416443E0
4.058221031E0,-1.619054198E0,1.259666920E0,2.949934006E0
4.069400031E0,7.620042562E-2,3.750784397E-1,4.700789452E0
4.078251031E0,3.669250011E-2,4.328689575E-1,4.679312706E0
4.088711031E0,6.214193106E-1,7.712388039E-1,5.449888229E0
4.098152031E0,1.115675211E0,1.217217684E0,5.197420120E-1
4.108891031E0,8.568106890E-1,1.358188629E0,6.433296204E-1
4.118228031E0,1.458514452E0,2.542247772E-1,3.185510635E0
4.128351031E0,1.847005725E0,2.407395840E-1,4.887003899E0
4.138154031E0,2.090215683E0,3.555518389E-1,5.389161110E0
4.148247031E0,1.959222317E0,3.413542509E-1,5.859823227E0
4.158340031E0,1.482277393E0,1.037474871E-1,6.102654457E0
4.168224031E0,9.069935083E-1,-4.236326814E-1,6.304347992E0
4.178195031E0,4.759270549E-1,-1.351506948E0,6.556376457E0
4.188446031E0,2.707055807E-1,-2.483944893E0,6.656821251E0
4.198405031E0,3.962573409E-2,-3.477128506E0,5.839719772E0
4.208189031E0,-1.662974656E-1,-4.127874851E0,4.150210381E0
4.218192031E0,-2.662093043E-1,-4.410679340E0,2.050670624E0
4.228155031E0,-3.911365271E-1,-4.213434696E0,7.031250000E-2
4.238230031E0,-6.456381679E-1,-3.492313147E0,-1.507745743E0
4.249083031E0,-1.013347149E0,-2.423521996E0,-2.289819241E0
4.258229031E0,-1.513302684E0,-1.253455758E0,-2.382831573E0
4.268248031E0,-2.188651323E0,-1.122727990E-1,-1.637607574E0
4.278279031E0,-2.979264498E0,8.342849016E-1,-4.371604919E-1
4.288408031E0,-3.596240282E0,1.496033430E0,1.347542763E0
4.299161031E0,-3.595085621E0,1.651788116E0,2.702244759E0
4.308330031E0,-2.332160473E0,4.792730808E-1,6.195055008E0
4.318214031E0,3.397217989E-1,-3.985248566E0,1.226396561E1
4.328554031E0,2.993036509E-1,-3.215586901E0,-8.791542053E-2
4.338572031E0,-4.096074104E-1,3.184421062E-1,-9.115247726E0
4.348479031E0,-3.567808867E-1,-9.427611828E-1,-8.986330032E0
4.358284031E0,-2.357601166E0,-1.056886196E0,-4.612214565E0
4.368318031E0,-3.574574232E0,-3.856613636E-1,-2.496568680E0
4.378208031E0,-2.844819546E0,-2.211330414E0,-4.748288631E0
4.388197031E0,-9.153578281E-1,-3.718068600E0,-4.149426937E0
4.398261031E0,-2.187718153E-1,-4.203030109E0,-3.752350807E0
4.408216031E0,-2.310914993E-1,-4.137425423E0,-3.480927944E0
4.418311031E0,-1.491225958E-1,-3.441417933E0,-1.215455055E0
4.428379031E0,2.256687880E-1,-3.415142298E0,-3.386363983E-1
4.438879031E0,9.108844995E-1,-3.628849745E0,1.179761887E-1
4.448250031E0,1.686906934E0,-3.508559704E0,6.507616043E-1
4.458231031E0,2.366681814E0,-3.241591215E0,5.222892761E-1
4.469839031E0,2.949563980E0,-2.989468336E0,-4.392681122E-1
4.478372031E0,3.404085636E0,-2.787536860E0,-1.487922668E0
4.488219031E0,3.575249195E0,-2.507771969E0,-2.279719830E0
4.498187031E0,3.322548628E0,-1.957591414E0,-2.987272739E0
4.509002031E0,2.754720688E0,-1.197011709E0,-3.175611019E0
4.518169031E0,2.179951429E0,-4.795711040E-1,-3.070121288E0
4.528400031E0,1.937133312E0,-9.417605400E-2,-2.970432758E0
4.538218031E0,1.883239150E0,1.829853058E-1,-3.005192280E0
4.548285031E0,1.972239256E0,4.012641907E-1,-3.417052746E0
4.559426031E0,2.150124788E0,8.055312634E-1,-2.948892117E0
4.568189031E0,2.108158112E0,8.004100323E-1,-2.957125187E0
4.578248031E0,2.076443911E0,9.438290596E-1,-2.668811798E0
4.588236031E0,1.972435594E0,1.051031590E0,-2.344097137E0
4.598200031E0,1.833459377E0,1.103773355E0,-1.862033844E0
4.608820031E0,1.225681067E0,1.265090942E0,-7.207660675E-1
4.618522031E0,8.079110384E-1,1.379932880E0,-1.108646393E-2
4.628873031E0,4.342943430E-1,1.528946400E0,8.981571198E-1
4.638223031E0,1.755424738E-1,1.583380699E0,1.717653275E0
4.648324031E0,1.796469688E-1,1.617175817E0,2.482181549E0
4.658200031E0,2.396143675E-1,1.679479122E0,3.493917465E0
4.668202031E0,2.675049305E-1,1.791345596E0,4.636285782E0
4.678724031E0,1.962553263E-1,1.736850500E0,5.563431740E0
4.689319031E0,3.396725655E-2,1.615139961E0,6.356753349E0
4.698234031E0,-1.680601835E-1,1.497946978E0,7.022392273E0
4.708250031E0,-2.311779261E-1,1.248826027E0,7.266043663E0
4.718479031E0,-1.104381084E-1,8.352320194E-1,7.257319450E0
4.728269031E0,1.153835058E-1,3.880364895E-1,7.203511238E0
4.738196031E0,1.622032523E-1,4.141330719E-4,6.959451675E0
4.749211031E0,-5.943882465E-2,-2.905743122E-1,6.515047073E0
4.758221031E0,-4.966289997E-1,-5.402882099E-1,6.021787643E0
4.768228031E0,-1.001610041E0,-7.124462128E-1,5.418032646E0
4.778262031E0,-1.368194580E0,-9.759145975E-1,4.701472282E0
4.788227031E0,-1.628199816E0,-1.282153964E0,3.853733063E0
4.799210031E0,-1.756762505E0,-1.573088765E0,3.123063087E0
4.808233031E0,-1.748073816E0,-1.802575111E0,2.263839722E0
4.818526031E0,-1.649641991E0,-1.951784253E0,1.224882126E0
4.828220031E0,-1.492207050E0,-1.976470709E0,1.766624451E-1
4.838236031E0,-1.227693439E0,-1.915356636E0,-7.502489090E-1
4.848176031E0,-7.911188006E-1,-1.931348205E0,-1.488524437E0
4.858196031E0,-2.937862873E-1,-1.905101061E0,-2.031056881E0
4.869170031E0,1.481018066E-1,-1.785020828E0,-2.376538277E0
4.878191031E0,4.865743816E-1,-1.653403044E0,-2.494020939E0
4.888234031E0,7.862142324E-1,-1.617356539E0,-2.589005947E0
4.898255031E0,1.144172907E0,-1.530455351E0,-2.524691582E0
4.908212031E0,1.358695507E0,-1.629891872E0,-2.226883888E0
4.919965031E0,1.437977552E0,-1.783533335E0,-1.608055592E0
4.928230031E0,1.299807787E0,-1.781224251E0,-1.307559490E0
4.938173031E0,1.040241241E0,-1.724791288E0,-1.371728420E0
4.948150031E0,7.942283154E-1,-1.650086403E0,-1.579244614E0
4.958177031E0,5.256489515E-1,-1.518187523E0,-1.612414360E0
4.968346031E0,3.104306459E-1,-1.276071310E0,-1.479698181E0
4.978314031E0,2.040276527E-1,-1.100798130E0,-1.390086651E0
4.988408031E0,1.942225695E-1,-1.005873680E0,-1.572435856E0
4.998165031E0,2.504537106E-1,-8.993856907E-1,-1.905548573E0
5.009475031E0,2.165498137E-1,-7.516939640E-1,-2.253917217E0
5.018332031E0,1.489791870E-1,-5.236079693E-1,-2.447478294E0
5.028282031E0,2.591840029E-1,-3.581743240E-1,-2.599040985E0
5.038286031E0,5.132722259E-1,-3.130049706E-1,-2.586741447E0
5.048315031E0,7.518035173E-1,-2.800612450E-1,-2.594416142E0
5.058417031E0,9.728456140E-1,-2.471265793E-1,-2.635784626E0
5.068251031E0,1.149414778E0,-2.308020592E-1,-2.727359772E0
5.078250031E0,1.154202461E0,-2.164630890E-1,-2.810558796E0
5.088314031E0,9.473749399E-1,-1.419024467E-1,-2.746049881E0
5.098171031E0,5.821202397E-1,9.108543396E-3,-2.301922321E0
5.108171031E0,2.911293507E-1,1.351442337E-1,-1.928626537E0
5.118303031E0,1.352119446E-1,1.579346657E-1,-1.507005215E0
5.128990031E0,1.588106155E-2,3.095002174E-1,-7.614998817E-1
5.138214031E0,7.238626480E-3,3.243031502E-1,-7.702708244E-1
5.148221031E0,1.484537125E-2,4.403991699E-1,-6.681303978E-1
5.158170031E0,3.698437214E-1,6.336050034E-1,-8.423519135E-2
5.168324031E0,5.558602810E-1,6.961750984E-1,2.678871155E-2
5.178580031E0,5.576689243E-1,7.757391930E-1,1.103839874E-1
5.188338031E0,3.484615684E-1,8.958454132E-1,2.035112381E-1
5.198232031E0,-1.005061865E-1,8.009271622E-1,4.681425095E-1
5.208724031E0,-3.407096863E-1,8.257937431E-1,9.168863297E-1
5.218499031E0,-5.313635468E-1,8.326787949E-1,1.522962570E0
5.228220031E0,-6.628023386E-1,9.076123238E-1,1.951666832E0
5.238384031E0,-6.616597176E-1,9.753232002E-1,2.469231606E0
5.249178031E0,-5.526028872E-1,1.013168335E0,3.145412445E0
5.258291031E0,-3.878679872E-1,1.095418453E0,3.756494522E0
5.268263031E0,-1.825721264E-1,1.177381992E0,3.818094254E0
5.278250031E0,-9.691214561E-2,1.287735462E0,3.387466431E0
5.288312031E0,-4.970330000E-2,1.292579651E0,3.139729500E0
5.300213031E0,-5.828458071E-2,1.420456886E0,2.982900620E0
5.308233031E0,9.481310844E-2,1.552840710E0,2.868065834E0
5.318299031E0,5.073142648E-1,1.399603367E0,2.752329826E0
5.328152031E0,1.052011490E0,1.020160675E0,2.769339561E0
5.338362031E0,1.385081530E0,5.209646225E-1,2.926835060E0
5.349414031E0,1.384085298E0,5.920267105E-2,3.048868179E0
5.358390031E0,1.072763681E0,-3.382177353E-1,3.024208069E0
5.368235031E0,7.182374001E-1,-9.162869453E-1,3.016616821E0
5.378287031E0,2.987362742E-1,-1.589101553E0,2.891176224E0
5.388223031E0,-3.172517419E-1,-1.944948673E0,2.300903320E0
5.398922031E0,-1.043806672E0,-2.105772734E0,1.553504944E0
5.408208031E0,-1.668975115E0,-2.146037817E0,1.026165962E0
5.418277031E0,-1.993033528E0,-2.083208799E0,7.046308517E-1
5.430005031E0,-2.118334293E0,-1.929265261E0,3.421878815E-1
5.438206031E0,-1.985328674E0,-1.752846241E0,1.197624207E-2
5.448328031E0,-1.636335850E0,-1.750929117E0,-3.747491837E-1
5.459242031E0,-1.170762062E0,-1.876748562E0,-6.560473442E-1
5.468238031E0,-7.111088037E-1,-1.963942528E0,-8.404474258E-1
5.478220031E0,-2.985311151E-1,-2.050005913E0,-1.037193298E0
5.488344031E0,1.269459724E-3,-2.124158859E0,-9.810261726E-1
5.498247031E0,1.985825598E-1,-2.128536701E0,-8.715910912E-1
5.508211031E0,2.932804823E-1,-2.095808983E0,-7.452878952E-1
5.518212031E0,3.333231807E-1,-2.093811512E0,-5.465688705E-1
5.528924031E0,3.202243447E-1,-2.144835234E0,-8.038425446E-2
5.538304031E0,1.877159774E-1,-2.112618685E0,1.113882065E-1
5.548468031E0,1.595993340E-2,-2.063363314E0,-4.022216797E-2
5.558215031E0,-1.251601726E-1,-2.048073769E0,-1.689014435E-1
5.568159031E0,-3.664841056E-1,-1.949467182E0,-1.960506439E-1
5.578514031E0,-6.019586325E-1,-1.775584221E0,-3.038482666E-1
5.588237031E0,-6.737951040E-1,-1.642297983E0,-6.026368141E-1
5.598188031E0,-6.291887164E-1,-1.574743748E0,-9.405570030E-1
5.608264031E0,-5.492597222E-1,-1.514717102E0,-1.210921288E0
5.618215031E0,-4.728506207E-1,-1.372922182E0,-1.365990162E0
5.629239031E0,-3.883924484E-1,-1.248445749E0,-1.512373447E0
5.638278031E0,-2.482039183E-1,-1.159056664E0,-1.611473083E0
5.649033031E0,-9.113398194E-2,-1.113517761E0,-1.341802120E0
5.658311031E0,4.766161740E-2,-1.038326025E0,-1.335566998E0
5.668374031E0,1.495201141E-1,-9.531087875E-1,-1.282228947E0
5.678547031E0,1.390810013E-1,-6.492834091E-1,-1.196434021E0
5.688328031E0,1.312352568E-1,-6.503672600E-1,-1.146555901E0
5.698265031E0,-4.408012331E-2,-2.830376625E-1,-1.091274738E0
5.708911031E0,-6.256166846E-2,-9.249782562E-2,-9.954633713E-1
5.718208031E0,6.216093898E-3,4.511833191E-2,-9.353528023E-1
5.728574031E0,1.073735952E-1,1.509590149E-1,-8.962454796E-1
5.738218031E0,2.632637024E-1,2.173418999E-1,-8.527288437E-1
5.748170031E0,4.075199366E-1,2.725601196E-1,-7.495312691E-1
5.759050031E0,4.806562960E-1,2.620429993E-1,-6.716995239E-1
5.768197031E0,4.470841289E-1,2.814555168E-1,-7.345013618E-1
5.778684031E0,3.065319061E-1,3.321580887E-1,-7.941927910E-1
5.788438031E0,1.055190563E-1,3.971033096E-1,-6.649951935E-1
5.798244031E0,-1.454515606E-1,4.593262672E-1,-4.818501472E-1
5.809793031E0,-3.702833652E-1,5.241541862E-1,-1.570615768E-1
5.818361031E0,-4.765098393E-1,5.658111572E-1,3.856096268E-1
5.828942031E0,-5.204587579E-1,5.629167557E-1,8.661012650E-1
5.838267031E0,-5.769156218E-1,6.222000122E-1,1.382866859E0
5.848222031E0,-5.852357149E-1,7.654776573E-1,1.973952293E0
5.858795031E0,-4.633424878E-1,8.411045074E-1,2.431232452E0
5.868217031E0,-2.538498044E-1,8.267393112E-1,2.774800301E0
5.878244031E0,-3.249475360E-2,8.506603241E-1,3.029249191E0
5.888432031E0,3.193650842E-1,8.116054535E-1,3.143883705E0
5.898266031E0,7.030355930E-1,7.441220284E-1,3.295412064E0
5.908232031E0,1.048157930E0,6.874179840E-1,3.444872856E0
5.918345031E0,1.369451284E0,6.102557182E-1,3.464180946E0
5.928962031E0,1.717390418E0,3.698668480E-1,3.396563530E0
5.938262031E0,2.008735180E0,-3.967761993E-3,3.235499382E0
5.948373031E0,2.070093870E0,-4.121828079E-1,2.999574661E0
5.958423031E0,1.779001474E0,-7.282950878E-1,2.698388100E0
5.968269031E0,1.154432297E0,-9.446754456E-1,2.309301376E0
5.978250031E0,4.260360003E-1,-1.158586025E0,1.661105156E0
5.988213031E0,-1.554353237E-1,-1.353811264E0,1.091279030E0
5.998291031E0,-5.591046214E-1,-1.542483330E0,6.383676529E-1
6.008642031E0,-7.983754873E-1,-1.726037979E0,2.867155075E-1
6.018197031E0,-8.716965914E-1,-1.825281143E0,5.050659180E-3
6.028375031E0,-8.248487711E-1,-1.762792587E0,-1.900377274E-1
6.038283031E0,-6.601642966E-1,-1.526529074E0,-3.806562424E-1
6.048691031E0,-2.987442017E-1,-1.405566692E0,-6.333584785E-1
6.058816031E0,1.744506657E-1,-1.414248943E0,-9.220428467E-1
6.068201031E0,7.048383951E-1,-1.440732241E0,-1.035864353E0
6.078180031E0,1.151015043E0,-1.386336565E0,-9.001007080E-1
6.088320031E0,1.469540834E0,-1.270407200E0,-7.345418930E-1
6.098253031E0,1.617618084E0,-1.168625116E0,-6.650514603E-1
6.108229031E0,1.691017628E0,-1.129696608E0,-7.178072929E-1
6.118169031E0,1.588986874E0,-1.260181189E0,-9.221768379E-1
6.128239031E0,1.185190797E0,-1.340420723E0,-1.226982594E0
6.138274031E0,4.902355969E-1,-1.263834476E0,-1.446059704E0
6.148165031E0,-1.494305283E-1,-1.192737579E0,-1.428669930E0
6.158196031E0,-6.632461548E-1,-1.081080437E0,-1.388182163E0
6.169041031E0,-1.054508805E0,-9.625649452E-1,-1.600914955E0
6.178309031E0,-1.266544104E0,-9.066030979E-1,-1.920977116E0
6.188319031E0,-1.395792723E0,-7.846207619E-1,-2.264433384E0
6.198750031E0,-1.405181170E0,-6.181452274E-1,-2.476508141E0
6.208612031E0,-1.266398668E0,-3.912286758E-1,-2.462388992E0
6.218270031E0,-9.942271709E-1,-1.594672203E-1,-2.202236176E0
6.228229031E0,-1.082259715E-1,-1.044869423E-1,-1.870464802E0
6.238323031E0,2.171561718E-1,-1.408534050E-1,-1.861851692E0
6.248949031E0,3.252823353E-1,-1.612834930E-1,-1.758277893E0
6.258296031E0,2.599062026E-1,-1.682505608E-1,-1.618316650E0
6.268597031E0,9.459040314E-2,-1.441950798E-1,-1.367550373E0
6.278221031E0,-1.262568831E-1,-7.361030579E-2,-9.694666862E-1
6.288338031E0,-2.241907418E-1,-7.043838501E-3,-5.874061584E-1
6.298296031E0,-1.858208179E-1,-1.452064514E-2,-4.275226593E-2
6.308252031E0,-9.009045362E-2,4.667329788E-2,5.465898514E-1
6.318461031E0,9.497314692E-3,1.882710457E-1,8.875379562E-1
6.328232031E0,1.299510598E-1,2.439827919E-1,9.316291809E-1
6.338290031E0,1.802192181E-1,2.605085373E-1,9.823970795E-1
6.348282031E0,4.090219736E-2,3.527255058E-1,1.174827576E0
6.358400031E0,-2.262035310E-1,5.450038910E-1,1.330945969E0
6.369188031E0,-4.231248498E-1,6.523714066E-1,1.406581879E0
6.378578031E0,-6.051696539E-1,6.873431206E-1,1.625480652E0
6.388329031E0,-8.243859410E-1,7.114863396E-1,2.112393379E0
6.398239031E0,-9.264762998E-1,6.856002808E-1,2.540727615E0
6.408411031E0,-9.913125634E-1,6.934280396E-1,2.914225578E0
6.419301031E0,-9.608653188E-1,7.128543854E-1,3.110462189E0
6.428374031E0,-8.324744701E-1,8.244490623E-1,3.074472427E0
6.438306031E0,-7.099542618E-1,9.541935921E-1,2.920297623E0
6.448588031E0,-5.622897148E-1,1.065921783E0,2.795474052E0
6.458203031E0,-2.819750905E-1,1.133162022E0,2.653651237E0
6.468181031E0,6.543648243E-2,1.200030804E0,2.693082809E0
6.478331031E0,4.550580084E-1,1.314117432E0,3.000947952E0
6.488891031E0,8.122057319E-1,1.097083092E0,3.175497055E0
6.498244031E0,1.103904724E0,6.734480858E-1,3.471664429E0
6.508499031E0,1.252928734E0,-4.654455185E-2,3.813346863E0
6.518231031E0,9.648720622E-1,-8.089561462E-1,3.787453651E0
6.528366031E0,4.010591805E-1,-1.440026999E0,3.316184998E0
6.538352031E0,-1.640932560E-1,-1.882923126E0,2.648468018E0
6.548323031E0,-7.999693155E-1,-2.127492666E0,1.906077385E0
6.558262031E0,-1.310901999E0,-2.352719307E0,1.189492226E0
6.568372031E0,-1.655748487E0,-2.472248554E0,6.133365631E-1
6.578618031E0,-1.897553444E0,-2.440939665E0,1.636095047E-1
6.589175031E0,-2.082556725E0,-2.279464483E0,-4.133892059E-1
6.598241031E0,-2.161432266E0,-2.181666613E0,-1.091161728E0
6.609036031E0,-2.168140173E0,-2.108481169E0,-1.648843288E0
6.618202031E0,-2.125520706E0,-2.051447392E0,-1.919122696E0
6.628397031E0,-2.023681641E0,-1.967492580E0,-1.893716812E0
6.638287031E0,-1.781765223E0,-1.946853876E0,-1.627248764E0
6.648326031E0,-1.302405000E0,-2.069009542E0,-1.190109730E0
6.658904031E0,-8.386970758E-1,-2.162825823E0,-6.971788406E-1
6.668176031E0,-5.704677701E-1,-2.143011093E0,-2.514381409E-1
6.678282031E0,-3.995081484E-1,-2.199562311E0,6.100177765E-2
6.688248031E0,-3.450695574E-1,-2.265400171E0,1.369514465E-1
6.698223031E0,-4.555779696E-1,-2.163887262E0,8.706092834E-3
6.708169031E0,-7.153742909E-1,-1.955043316E0,-2.113733292E-1
6.718183031E0,-9.085632563E-1,-1.732646704E0,-5.153570175E-1
6.728228031E0,-1.005429387E0,-1.583632708E0,-8.525991440E-1
6.738339031E0,-1.011192799E0,-1.447888851E0,-1.163975239E0
6.748269031E0,-8.828197718E-1,-1.310411453E0,-1.352846146E0
6.758226031E0,-6.638780832E-1,-1.226722002E0,-1.604519367E0
6.768210031E0,-9.674801677E-2,-1.191074133E0,-2.167272568E0
6.778423031E0,1.087511778E-1,-1.115928411E0,-2.312123775E0
6.788272031E0,2.170294821E-1,-1.030562878E0,-2.330904484E0
6.798266031E0,2.705493271E-1,-9.896707535E-1,-2.357298851E0
6.808300031E0,2.581907809E-1,-9.005265236E-1,-2.180893898E0
6.818248031E0,2.473690808E-1,-7.928915024E-1,-2.076579571E0
6.829020031E0,2.086090147E-1,-7.068440914E-1,-2.111127853E0
6.838260031E0,1.129682064E-1,-6.561980247E-1,-2.149610519E0
6.848359031E0,-2.570360899E-2,-5.476870537E-1,-2.210588932E0
6.858371031E0,-1.417411417E-1,-4.629292488E-1,-2.216254711E0
6.868286031E0,-1.322641671E-1,-4.259972572E-1,-1.998396397E0
6.878790031E0,2.116203308E-2,-4.051027298E-1,-1.566247463E0
6.888358031E0,2.209516168E-1,-4.987335205E-1,-1.166180611E0
6.898372031E0,3.860436976E-1,-5.414228439E-1,-9.005484581E-1
6.908188031E0,4.962803125E-1,-4.374217987E-1,-5.944395065E-1
6.918279031E0,5.203805566E-1,-3.516087532E-1,-2.940034866E-1
6.928387031E0,4.258548617E-1,-2.234115601E-1,-2.960681915E-2
6.938193031E0,2.132216245E-1,-3.656291962E-2,5.179328918E-1
6.949054031E0,-2.629137039E-2,2.690935135E-2,1.125620842E0
6.958256031E0,-2.076275945E-1,3.984594345E-2,1.619378090E0
6.968301031E0,-3.072194457E-1,7.810735703E-2,2.072433472E0
6.978321031E0,-3.956447244E-1,1.483798027E-1,2.460063934E0
6.988264031E0,-4.340341091E-1,2.926969528E-1,2.936038971E0
6.998845031E0,-3.799599707E-1,4.786953926E-1,3.463783264E0
7.008483031E0,-3.064106107E-1,7.042188644E-1,3.886182785E0
7.018425031E0,-2.345595807E-1,9.966502190E-1,4.308469772E0
7.028367031E0,-1.087163836E-1,1.214304924E0,4.705759048E0
7.038370031E0,1.761398315E-1,1.342526436E0,5.015091896E0
7.048213031E0,5.600506067E-1,1.423886776E0,5.147242546E0
7.058207031E0,1.042049885E0,1.548645020E0,4.602203369E0
7.068148031E0,1.620051026E0,1.123866558E0,4.651720047E0
7.078433031E0,2.138210773E0,8.474926949E-1,4.041727066E0
7.089300031E0,2.103848219E0,2.182860374E-1,3.292974472E0
7.098233031E0,1.619521737E0,-1.545481682E-1,2.964593887E0
7.108209031E0,6.941865683E-1,-3.499467373E-1,2.876410484E0
7.118161031E0,-3.013357818E-1,-8.529243469E-1,2.449259758E0
7.128293031E0,-1.279797554E0,-1.168086767E0,2.117904663E0
7.139324031E0,-1.933211088E0,-1.478601694E0,1.842911720E0
7.148539031E0,-2.336814404E0,-1.648620129E0,1.436014175E0
7.158219031E0,-2.433594942E0,-1.806998253E0,8.027515411E-1
7.168272031E0,-2.282056808E0,-1.959439516E0,2.277202606E-1
7.178702031E0,-2.108009100E0,-1.867842436E0,-4.948196411E-1
7.188207031E0,-1.890036345E0,-1.642552853E0,-1.138306618E0
7.198207031E0,-1.432991624E0,-1.528410912E0,-1.229854584E0
7.208406031E0,-7.841290236E-1,-1.568475723E0,-1.036140442E0
7.218300031E0,-2.375919223E-1,-1.660042286E0,-7.216310501E-1
7.228185031E0,1.745650172E-1,-1.677224159E0,-3.604211807E-1
7.238225031E0,4.572190046E-1,-1.698365688E0,1.318931580E-3
7.249036031E0,5.378212333E-1,-1.682657719E0,1.007184982E-1
7.258426031E0,3.532214761E-1,-1.699663639E0,-4.544258118E-2
7.268205031E0,6.529092789E-4,-1.708006620E0,-3.949584961E-1
7.278230031E0,-4.192641973E-1,-1.651098013E0,-9.451360703E-1
7.288267031E0,-7.539846301E-1,-1.629472733E0,-1.470845699E0
7.299222031E0,-9.871520996E-1,-1.470155239E0,-2.099668026E0
7.308197031E0,-7.878215909E-1,-1.373540163E0,-2.374382019E0
7.318459031E0,-5.178799629E-1,-1.322703600E0,-2.621868610E0
7.328568031E0,-2.679533362E-1,-1.250351906E0,-2.910849094E0
7.338247031E0,-9.218752384E-2,-1.167722225E0,-3.115831375E0
7.348174031E0,3.662306070E-2,-1.124086618E0,-3.098656178E0
7.358203031E0,1.375570297E-1,-1.049158573E0,-2.889383316E0
7.368885031E0,2.488451600E-1,-1.015008926E0,-2.714433193E0
7.378238031E0,2.802706957E-1,-1.037103891E0,-2.700438023E0
7.388975031E0,1.205645204E-1,-8.959116936E-1,-2.596412182E0
7.398261031E0,-1.292189360E-1,-7.040779591E-1,-2.440633774E0
7.408433031E0,-3.579262495E-1,-5.479946136E-1,-2.112608910E0
7.420439031E0,-4.859297276E-1,-3.606505394E-1,-1.654081345E0
7.438242031E0,-1.470663548E-1,-2.235999107E-1,-6.168470383E-1
7.448306031E0,1.171138287E-1,-1.692657471E-1,-6.892204285E-2
7.458380031E0,3.159635067E-1,-7.527112961E-2,6.056156158E-1
7.468222031E0,3.512704968E-1,2.411556244E-2,1.107929230E0
7.478274031E0,1.679432392E-1,1.697826385E-1,1.445247650E0
7.489067031E0,-2.333351374E-1,3.588557243E-1,1.588106155E0
7.498235031E0,-6.691426039E-1,5.040197372E-1,1.791177750E0
7.508245031E0,-1.026011467E0,6.250271797E-1,2.084971428E0
7.518188031E0,-1.238347173E0,7.278237343E-1,2.405809402E0
7.528298031E0,-1.308666468E0,8.153395653E-1,2.611317635E0
7.539138031E0,-1.239371181E0,7.941832542E-1,2.803077698E0
7.548233031E0,-1.015243888E0,7.255434990E-1,2.983266830E0
7.558211031E0,-7.051252127E-1,6.458020210E-1,3.247085571E0
7.568272031E0,-4.247800112E-1,5.462164879E-1,3.377746582E0
7.578316031E0,-2.966411114E-1,5.219779015E-1,3.364169121E0
7.588411031E0,-2.902535200E-1,5.798745155E-1,3.211401939E0
7.598211031E0,-4.069668055E-1,6.990675926E-1,3.045050621E0
7.608354031E0,-4.884204865E-1,8.016395569E-1,2.754409790E0
7.618343031E0,-4.167178869E-1,7.614951134E-1,2.515017509E0
7.628264031E0,-7.419896126E-2,7.795648575E-1,2.442130089E0
7.638230031E0,2.070910931E-1,5.741753578E-1,2.344491005E0
7.648306031E0,2.980281115E-1,2.076015472E-1,2.435768127E0
7.659406031E0,1.211321354E-2,-2.348713875E-1,2.686706543E0
7.668413031E0,-4.854505062E-1,-6.592552662E-1,2.935523987E0
7.678591031E0,-9.602192640E-1,-1.159553528E0,3.020182610E0
7.688380031E0,-1.365623355E0,-1.677217960E0,2.813915253E0
7.698297031E0,-1.727468252E0,-2.083522558E0,2.484111786E0
7.708865031E0,-2.038811684E0,-2.342293739E0,1.943003654E0
7.718259031E0,-2.292429686E0,-2.431153059E0,1.161840439E0
7.728914031E0,-2.335703850E0,-2.382209778E0,3.885498047E-1
7.738206031E0,-2.128691673E0,-2.239506960E0,-1.843385696E-1
7.748765031E0,-1.759811044E0,-2.158327341E0,-6.691045761E-1
7.758366031E0,-1.352557182E0,-2.146312952E0,-1.203150272E0
7.770350031E0,-8.034152985E-1,-1.976096869E0,-1.730959415E0
7.788252031E0,-6.854450703E-1,-1.983212948E0,-1.585629463E0
7.798154031E0,-5.360717177E-1,-2.002747297E0,-1.179388046E0
7.808503031E0,-4.355310202E-1,-2.032919884E0,-7.441716194E-1
7.818955031E0,-4.142504334E-1,-2.182748556E0,2.735719681E-1
7.828460031E0,-5.250928998E-1,-2.200990438E0,4.198627472E-1
7.838500031E0,-6.490596533E-1,-2.138543367E0,3.359231949E-1
7.848260031E0,-7.147618532E-1,-2.082792521E0,5.071735382E-2
7.858334031E0,-6.034167409E-1,-2.045597553E0,-3.120937347E-1
7.868415031E0,-5.045094490E-1,-1.941327810E0,-7.777175903E-1
7.878255031E0,-4.329545498E-1,-1.772222042E0,-1.243713379E0
7.889389031E0,-2.864907384E-1,-1.644400835E0,-1.638112068E0
7.898239031E0,-1.238294840E-1,-1.548452139E0,-2.024088860E0
7.908222031E0,4.166847467E-2,-1.414367199E0,-2.294500828E0
7.918147031E0,2.590684295E-1,-1.307952166E0,-2.326757908E0
7.928185031E0,4.081115723E-1,-1.255300283E0,-2.327980042E0
7.938479031E0,3.833988905E-1,-1.135968208E0,-2.133669376E0
7.948255031E0,2.376794815E-1,-1.014533997E0,-1.866297722E0
7.958214031E0,3.562486172E-2,-9.766800404E-1,-1.565351963E0
7.968181031E0,-1.964793205E-1,-9.150221348E-1,-1.261043549E0
7.978488031E0,-3.780741096E-1,-7.867002487E-1,-1.012539864E0
7.988254031E0,-4.754128456E-1,-6.286931038E-1,-7.309665680E-1
7.998230031E0,-4.778859615E-1,-4.785075188E-1,-3.761720657E-1
8.008428031E0,-4.184964299E-1,-3.632225990E-1,-1.473693848E-1
8.018268031E0,-3.526247144E-1,-2.716355324E-1,1.097249985E-1
8.028743031E0,-2.794106603E-1,-1.178574562E-1,3.084716797E-1
8.038236031E0,-1.686957479E-1,9.967803955E-3,4.734859467E-1
8.048235031E0,6.049692631E-3,1.210346222E-1,6.766490936E-1
8.058322031E0,1.032269001E-1,2.314291000E-1,8.091878891E-1
8.068376031E0,1.567381024E-1,3.074383736E-1,8.054208755E-1
8.078357031E0,1.170788407E-1,3.623623848E-1,7.104291916E-1
8.088382031E0,-1.121056080E-2,4.053030014E-1,5.454416275E-1
8.098194031E0,-1.234955788E-1,4.492464066E-1,4.706516266E-1
8.108278031E0,-1.689652205E-1,4.803037643E-1,5.310239792E-1
8.118433031E0,-1.750186682E-1,4.462080002E-1,7.826070786E-1
8.128803031E0,-1.830649376E-1,4.292387962E-1,1.092977524E0
8.138244031E0,-1.980551481E-1,4.573993683E-1,1.384101868E0
8.148370031E0,-1.266632676E-1,5.267138481E-1,1.583351135E0
8.158188031E0,3.701734543E-2,6.290979385E-1,1.734484673E0
8.168254031E0,1.727814674E-1,7.749838829E-1,1.883501053E0
8.178595031E0,2.027606964E-1,9.794540405E-1,1.820924759E0
8.188523031E0,2.224161625E-1,1.147703648E0,1.693611145E0
8.198506031E0,3.262827396E-1,1.194867134E0,1.661621094E0
8.208253031E0,5.530135632E-1,1.294582367E0,1.749773979E0
8.218230031E0,8.143711090E-1,1.244743347E0,1.910452843E0
8.228357031E0,1.082918167E0,8.825988770E-1,2.512931824E0
8.238217031E0,1.288092494E0,3.844919205E-1,2.812405586E0
8.248970031E0,1.163745403E0,-2.606792450E-1,3.171645164E0
8.258294031E0,6.747634411E-1,-9.540247917E-1,3.117849350E0
8.268531031E0,-6.937122345E-2,-1.354078293E0,2.574864388E0
8.278583031E0,-7.965610027E-1,-1.731415987E0,1.973491669E0
8.288259031E0,-1.304648399E0,-2.006327629E0,1.221409798E0
8.298250031E0,-1.693964243E0,-2.100094795E0,4.443197250E-1
8.308229031E0,-1.843734145E0,-2.112564087E0,-1.108303070E-1
8.318177031E0,-1.801397204E0,-2.014114618E0,-6.189861298E-1
8.328528031E0,-1.537891984E0,-1.815361261E0,-1.019417763E0
8.338226031E0,-1.061225057E0,-1.608241320E0,-1.384851456E0
8.348980031E0,6.428653002E-1,-1.457164764E0,-1.572569370E0
8.358238031E0,5.729917288E-1,-1.470797062E0,-1.574202061E0
8.368243031E0,1.274379015E0,-1.452576876E0,-7.745881081E-1
8.378237031E0,2.069506645E0,-1.579670429E0,-2.694330215E-1
8.388291031E0,1.917697191E0,-1.555338383E0,2.340211868E-1
8.399266031E0,1.514545202E0,-1.485632658E0,5.170173645E-1
8.408710031E0,8.835235834E-1,-1.452212095E0,6.236896515E-1
8.418266031E0,1.023749709E-1,-1.333602905E0,5.319652557E-1
8.428265031E0,-6.258605123E-1,-1.149545193E0,4.089984894E-1
8.438262031E0,-1.177114010E0,-9.243857861E-1,-1.972818375E-1
8.448247031E0,-1.188174248E0,-8.811993599E-1,-6.210012436E-1
8.458212031E0,-9.876618385E-1,-9.686107635E-1,-8.630599976E-1
8.469709031E0,-7.605566978E-1,-9.498772621E-1,-1.309620857E0
8.478187031E0,-5.066469908E-1,-8.639070988E-1,-1.520310402E0
8.488579031E0,-4.109097719E-1,-6.936194897E-1,-2.001748562E0
8.498216031E0,-2.866805792E-1,-5.177643299E-1,-2.655888557E0
8.508199031E0,-5.803883076E-2,-4.288942814E-1,-2.936473370E0
8.518183031E0,-2.618002892E-2,-3.842122555E-1,-3.084927082E0
8.528620031E0,-6.644809246E-2,-2.730824947E-1,-3.131521225E0
8.540335031E0,-4.823398590E-2,-2.003049850E-1,-2.937340260E0
8.553514531E0,-2.080504894E-1,-1.185104847E-1,-1.930413723E0
8.568186031E0,-3.542084694E-1,-5.384159088E-2,-1.214268208E0
8.578191031E0,-4.197344780E-1,-7.429409027E-2,-7.159299850E-1
8.588204031E0,-4.371956587E-1,-8.244848251E-2,-3.625822067E-1
8.598358031E0,-4.150328636E-1,3.688383102E-2,2.607345581E-2
8.611788031E0,-3.229445219E-1,2.012300491E-1,3.960161209E-1
8.628229031E0,-1.643625498E-1,4.062244892E-1,9.094705582E-1
8.638237031E0,-2.203369141E-1,5.098171234E-1,1.060876846E0
8.648203031E0,-3.630867004E-1,5.781407356E-1,1.333342552E0
8.658207031E0,-4.868595600E-1,6.004278660E-1,1.637720108E0
8.668178031E0,-5.320947170E-1,5.562427044E-1,1.999427795E0
8.678197031E0,-5.834320784E-1,5.426259041E-1,2.374370575E0
8.690681031E0,-5.962864161E-1,5.350637436E-1,2.821335793E0
8.703577531E0,-4.519454241E-1,4.869246483E-1,3.469669342E0
8.718157031E0,-3.141696453E-1,5.849916935E-1,3.636684418E0
8.728220031E0,-2.077552080E-1,8.142759800E-1,3.524730682E0
8.738204031E0,-1.039782763E-1,1.161568165E0,3.325335503E0
8.748181031E0,1.444162130E-1,1.435341358E0,3.163437843E0
8.759110031E0,4.696699381E-1,1.622876644E0,3.007794380E0
8.768235031E0,7.006728053E-1,1.817402840E0,2.855986595E0
8.778317031E0,9.713395834E-1,2.103764534E0,2.743546486E0
8.788209031E0,1.257213593E0,2.159319878E0,2.657785416E0
8.798214031E0,1.638681889E0,2.013686180E0,2.141118050E0
8.808871031E0,2.006413937E0,1.589431763E0,1.975309372E0
8.818196031E0,2.220614195E0,1.095269680E0,1.737270355E0
8.828779031E0,2.193810463E0,4.896330833E-1,1.652536392E0
8.838270031E0,1.903772473E0,-2.971982956E-1,1.794571877E0
8.848217031E0,1.251055598E0,-1.002447605E0,1.830107689E0
8.858211031E0,5.823233128E-1,-1.634030581E0,1.422380447E0
8.868241031E0,4.950308800E-2,-2.243904829E0,9.476156235E-1
8.878531031E0,-4.873702526E-1,-2.671775341E0,3.901729584E-1
8.888390031E0,-1.065391064E0,-2.867534637E0,-1.780138016E-1
8.898432031E0,-1.984898210E0,-2.730113506E0,-1.169733524E0
8.908344031E0,-2.040256739E0,-2.730401516E0,-1.526994228E0
8.918201031E0,-1.865215659E0,-2.753314734E0,-1.723234177E0
8.929135031E0,-1.552184939E0,-2.742309570E0,-1.934065819E0
8.938306031E0,-1.103082895E0,-2.791172743E0,-1.992113590E0
8.948909031E0,-6.576873064E-1,-2.883813620E0,-1.814080715E0
8.958260031E0,-3.322185278E-1,-2.835086584E0,-1.332448483E0
8.968327031E0,-5.497694016E-2,-2.764867783E0,-7.123374939E-1
8.978375031E0,1.884473562E-1,-2.867808342E0,2.042446136E-1
8.988251031E0,3.261139393E-1,-3.022234440E0,1.304380417E0
8.998256031E0,1.963134408E-1,-2.934387684E0,1.873812675E0
9.008263031E0,-3.703188896E-2,-2.871422768E0,1.754089355E0
9.018262031E0,-3.893793821E-1,-2.722671986E0,1.144741058E0
9.029339031E0,-7.574244738E-1,-2.398157120E0,4.623308182E-1
9.038271031E0,-9.225414991E-1,-2.069336176E0,-9.129619598E-2
9.049007031E0,-7.301461697E-1,-1.789161205E0,-5.112838745E-1
9.058280031E0,-3.211722374E-1,-1.595186472E0,-1.018811703E0
9.068265031E0,8.649778366E-2,-1.409265280E0,-1.567655087E0
9.078202031E0,3.931101561E-1,-1.203458071E0,-2.030654907E0
9.088361031E0,6.502146721E-1,-1.046687603E0,-2.304057598E0
9.098695031E0,8.778381944E-1,-9.498136044E-1,-2.507049084E0
9.108194031E0,1.014120102E0,-8.008275032E-1,-2.625247002E0
9.118310031E0,1.093330860E0,-6.137993336E-1,-2.632734299E0
9.128173031E0,1.093248844E0,-4.211397171E-1,-2.586201191E0
9.138509031E0,1.011031032E0,-2.677674294E-1,-2.545771599E0
9.148234031E0,8.650774956E-1,-1.347928047E-1,-2.360645294E0
9.158225031E0,6.289820671E-1,-1.273393631E-2,-2.077185154E0
9.169361031E0,4.672590792E-1,1.329021454E-1,-1.729787350E0
9.178597031E0,3.988283873E-1,2.026062012E-1,-1.362461090E0
9.188299031E0,3.198915720E-1,2.906279564E-1,-1.007232666E0
9.198216031E0,1.866650581E-1,4.096999168E-1,-5.951147079E-1
9.208289031E0,8.535271883E-2,5.644516945E-1,-2.585582733E-1
9.218838031E0,1.156014204E-2,6.157717705E-1,8.808994293E-2
9.228431031E0,-1.453983784E-1,7.232899666E-1,4.668989182E-1
9.238235031E0,-3.459700346E-1,8.281335831E-1,8.114280701E-1
9.248266031E0,-5.880818963E-1,8.763246536E-1,1.110851288E0
9.258419031E0,-8.142036796E-1,9.008779526E-1,1.330718994E0
9.268368031E0,-8.862136602E-1,7.853889465E-1,1.495694160E0
9.278470031E0,-9.696453214E-1,7.740530968E-1,1.546971321E0
9.289235031E0,-9.902624488E-1,7.724270821E-1,1.610538483E0
9.298275031E0,-1.009123921E0,7.903065681E-1,1.775511742E0
9.308894031E0,-1.003240347E0,7.993030548E-1,2.021586418E0
9.318245031E0,-1.019236088E0,8.303666115E-1,2.273603439E0
9.328250031E0,-1.075769186E0,9.071893692E-1,2.679677963E0
9.338519031E0,-1.129451275E0,1.034250736E0,3.003415108E0
9.348295031E0,-1.062578678E0,1.132595062E0,3.269799232E0
9.358267031E0,-9.108126760E-1,1.225992203E0,3.436789513E0
9.368164031E0,-7.126398683E-1,1.396747112E0,3.601789474E0
9.378180031E0,-4.699134827E-1,1.543956280E0,3.785120010E0
9.389245031E0,-1.015898585E-2,1.457023144E0,4.029918671E0
9.398207031E0,5.040428638E-1,1.124579430E0,3.949598312E0
9.408325031E0,9.983050823E-1,4.234609604E-1,4.364279747E0
9.418145031E0,1.033916950E0,-4.771518707E-2,4.419715881E0
9.428262031E0,7.380442619E-1,-4.839925766E-1,4.060452461E0
9.439078031E0,1.171818376E-2,-1.436990976E0,2.527841568E0
9.448193031E0,-2.959384322E-1,-1.888609409E0,1.502526283E0
9.458532031E0,-4.773037434E-1,-2.213157177E0,5.321865082E-1
9.468231031E0,-5.099951029E-1,-2.421437979E0,-4.100036621E-1
9.478194031E0,-4.788345098E-1,-2.444972515E0,-1.315568447E0
9.490093031E0,-2.966676354E-1,-2.397484064E0,-2.071693897E0
9.498182031E0,7.912290096E-2,-2.388768673E0,-2.691722870E0
9.509139031E0,5.634135008E-1,-2.465349197E0,-3.155810356E0
9.518209031E0,1.073905230E0,-2.513417482E0,-3.247516155E0
9.528576031E0,1.511723757E0,-2.540548086E0,-2.994490147E0
9.538222031E0,1.817573071E0,-2.579130411E0,-2.523919582E0
9.548216031E0,1.940196872E0,-2.697802305E0,-1.848720074E0
9.558894031E0,1.812412739E0,-2.831268311E0,-9.459981918E-1
9.568249031E0,1.319689870E0,-2.773620367E0,-3.503990173E-2
9.578264031E0,5.806983709E-1,-2.598222017E0,7.392416000E-1
9.588366031E0,-1.660814881E-1,-2.433274508E0,1.281958580E0
9.598416031E0,-8.124139905E-1,-2.207463026E0,1.445707321E0
9.608181031E0,-1.228008866E0,-2.004076481E0,1.285796165E0
9.618190031E0,-1.388668776E0,-1.770237684E0,8.498878479E-1
9.628281031E0,-1.308072448E0,-1.499290705E0,1.388254166E-1
9.638312031E0,-8.940080404E-1,-1.311781883E0,-3.306932449E-1
9.648185031E0,-4.276205301E-1,-1.126948833E0,-9.230203629E-1
9.658190031E0,3.261423111E-2,-9.054276943E-1,-1.827150345E0
9.668247031E0,4.974258542E-1,-7.842135429E-1,-2.552101135E0
9.678239031E0,8.082582951E-1,-6.934120655E-1,-3.040987492E0
9.688318031E0,9.371661544E-1,-6.136219501E-1,-3.272918224E0
9.698203031E0,8.979790211E-1,-5.032382011E-1,-3.302713394E0
9.708297031E0,8.343130350E-1,-4.016647339E-1,-3.245268345E0
9.718241031E0,7.837151289E-1,-3.352427483E-1,-3.033071995E0
9.729219031E0,7.197526693E-1,-2.599248886E-1,-2.687624931E0
9.738217031E0,6.227654219E-1,-1.707291603E-1,-2.197816372E0
9.748251031E0,5.293028355E-1,-1.399354935E-1,-1.680252075E0
9.758243031E0,5.010598898E-1,-1.267161369E-1,-1.088276863E0
9.768278031E0,4.970037937E-1,-8.602190018E-2,-3.682479858E-1
9.778231031E0,5.238972902E-1,-7.019329071E-2,1.689481735E-1
9.788457031E0,5.066741705E-1,-1.022100449E-1,5.737972260E-1
9.798204031E0,3.841829896E-1,-6.783533096E-2,8.287973404E-1
9.808222031E0,1.155713797E-1,5.833339691E-2,1.087212563E0
9.818204031E0,-8.987379074E-2,2.278451920E-1,1.322591782E0
9.828245031E0,-2.734104395E-1,3.512301445E-1,1.678914070E0
9.838291031E0,-4.239014387E-1,4.620399475E-1,2.127737999E0
9.849223031E0,-5.413128138E-1,5.681662560E-1,2.598892212E0
9.858211031E0,-5.850250721E-1,6.011118889E-1,3.074277878E0
9.868195031E0,-5.243036747E-1,5.820393562E-1,3.425101280E0
9.878633031E0,-3.635519743E-1,5.302634239E-1,3.574675560E0
9.888342031E0,-1.832405329E-1,4.930219650E-1,3.595078468E0
9.898695031E0,-4.706895351E-2,5.195775032E-1,3.530974388E0
9.908248031E0,1.422798634E-2,6.690168381E-1,3.505802155E0
9.918235031E0,1.058670282E-1,8.389420509E-1,3.398025513E0
9.928217031E0,1.562888622E-1,9.939012527E-1,3.225523949E0
9.938225031E0,1.703991890E-1,1.224135399E0,3.090968132E0
9.948247031E0,2.636966705E-1,1.497896671E0,2.509848595E0
9.958221031E0,2.989085317E-1,1.574872017E0,2.290520668E0
9.969029031E0,1.015109658E0,1.460666180E0,1.755988121E0
9.978324031E0,1.420110345E0,9.020972252E-1,2.147125244E0
9.988535031E0,1.691774011E0,1.557106972E-1,2.661586761E0
9.999184031E0,1.254660368E0,-4.012894630E-1,2.871892929E0
1.000832703E1,4.600935578E-1,-8.901262283E-1,2.852515221E0
1.001820403E1,-3.457014561E-1,-1.442642450E0,2.226783752E0
1.002816003E1,-1.014780402E0,-2.009179115E0,1.533531189E0
1.003845203E1,-1.635503531E0,-2.381470919E0,9.192438126E-1
1.004855203E1,-2.127023220E0,-2.462304354E0,3.012886047E-1
1.005820103E1,-2.429654837E0,-2.458884478E0,-4.919853210E-1
1.007029503E1,-2.517273188E0,-2.339477062E0,-1.044288158E0
1.008328803E1,-2.043457270E0,-2.262119770E0,-1.851656437E0
1.009816403E1,-1.658823133E0,-2.270999908E0,-2.051477432E0
1.010829103E1,-1.378698587E0,-2.220456839E0,-2.014509201E0
1.011903503E1,-1.067289591E0,-2.249596834E0,-1.587906837E0
1.012839003E1,-7.238305211E-1,-2.338914871E0,-9.462642670E-1
1.013826603E1,-4.149747491E-1,-2.447800636E0,-3.323154449E-1
1.014830503E1,-2.644575238E-1,-2.513119936E0,2.336168289E-1
1.015835903E1,-1.737579107E-1,-2.508876324E0,8.427076340E-1
1.016898503E1,-1.634219289E-1,-2.488793373E0,1.224828720E0
1.017827503E1,-3.117746115E-1,-2.510379791E0,1.255317688E0
1.019010703E1,-6.333371997E-1,-2.442941189E0,9.971332550E-1
1.019821803E1,-1.003098249E0,-2.253414392E0,5.720491409E-1
1.020822403E1,-1.188275337E0,-2.127184153E0,1.805047989E-1
1.021824303E1,-1.138669491E0,-2.038940430E0,-2.446498871E-1
1.022815203E1,-9.916057587E-1,-1.888256788E0,-6.222829819E-1
1.023877903E1,-6.771306992E-1,-1.760820389E0,-1.046880722E0
1.024834803E1,-2.884195447E-1,-1.653268099E0,-1.562800407E0
1.025820203E1,1.193426847E-1,-1.553164005E0,-2.114143372E0
1.026822203E1,4.736046493E-1,-1.430431843E0,-2.583043575E0
1.027822303E1,7.674122453E-1,-1.297511816E0,-2.854722500E0
1.028819503E1,9.885628819E-1,-1.227123499E0,-3.036277771E0
1.029816203E1,1.044641495E0,-1.129146338E0,-3.164823055E0
1.030868703E1,9.317163825E-1,-9.664335251E-1,-3.183059692E0
1.031837503E1,7.106396556E-1,-8.210513592E-1,-3.099834442E0
1.033071303E1,4.530547261E-1,-7.330062389E-1,-2.780984879E0
1.034863003E1,3.436651826E-2,-6.142239571E-1,-1.639929295E0
1.035825803E1,-1.727155745E-1,-5.273106098E-1,-1.040210724E0
1.036816903E1,-3.276068568E-1,-4.223973751E-1,-4.723262787E-1
1.037865103E1,-4.155680239E-1,-3.131914139E-1,6.312656403E-2
1.038825803E1,-4.423024356E-1,-2.162036896E-1,5.098457336E-1
1.039826303E1,-4.808977246E-1,-1.350665092E-1,7.493486404E-1
1.040827703E1,-5.438080430E-1,2.641201019E-3,8.723249435E-1
1.041814403E1,-5.136935711E-1,1.823148727E-1,8.430747986E-1
1.042817603E1,-5.826305151E-1,2.651915550E-1,7.859773636E-1
1.043831203E1,-7.615331411E-1,3.842167854E-1,8.302640915E-1
1.044910103E1,-8.866360188E-1,5.038022995E-1,8.994922638E-1
1.045830103E1,-9.111136794E-1,5.262112617E-1,1.020686150E0
1.046817903E1,-9.318677187E-1,5.772066116E-1,1.229546547E0
1.047837703E1,-8.891795278E-1,6.536450386E-1,1.329349518E0
1.048826103E1,-8.689416647E-1,6.694922447E-1,1.493055344E0
1.049885103E1,-8.383200765E-1,8.312559128E-1,2.247787476E0
1.050819203E1,-8.547767997E-1,8.372321129E-1,2.243963242E0
1.051815803E1,-4.576953650E-1,9.823813438E-1,2.724087715E0
1.052839003E1,-2.317186594E-1,1.111636162E0,2.890108109E0
1.053830603E1,2.764362097E-2,1.292098522E0,3.069422722E0
1.054867003E1,2.475362420E-1,1.456481457E0,3.212405205E0
1.055876703E1,4.506137669E-1,1.530351162E0,3.448981285E0
1.056826603E1,7.006785870E-1,1.374511242E0,3.750731468E0
1.057822203E1,9.483151436E-1,9.472513199E-1,3.957270622E0
1.058823003E1,1.063129187E0,3.575706482E-1,3.891047478E0
1.059906603E1,9.101773500E-1,-2.689847946E-1,3.625798225E0
1.060833303E1,4.637063444E-1,-7.696425915E-1,3.294561386E0
1.061820903E1,-9.143397212E-2,-1.143063068E0,2.931420326E0
1.062821103E1,-5.424918532E-1,-1.521359205E0,2.570888519E0
1.063829603E1,-8.753568530E-1,-1.872326851E0,2.196378708E0
1.064895903E1,-1.036755800E0,-2.188703060E0,1.725798607E0
1.065821103E1,-1.038211584E0,-2.463242531E0,1.015795708E0
1.066866003E1,-1.023335576E0,-2.614901781E0,1.722717285E-1
1.067816903E1,-8.484956622E-1,-2.642739773E0,-5.191154480E-1
1.068843103E1,-6.198310852E-1,-2.558243513E0,-1.130615234E0
1.069905103E1,-2.708198428E-1,-2.465520382E0,-1.729021549E0
1.070822303E1,3.017999530E-1,-2.405999899E0,-1.971934319E0
1.071815703E1,8.676435351E-1,-2.448100328E0,-1.831243992E0
1.072826203E1,1.274235964E0,-2.551048279E0,-1.531516075E0
1.073823803E1,1.483895540E0,-2.571665525E0,-1.189530373E0
1.074818903E1,1.476271629E0,-2.545729876E0,-8.541522026E-1
1.075820503E1,1.311726570E0,-2.460802794E0,-5.025587082E-1
1.076921603E1,9.617524147E-1,-2.247428656E0,-2.938852310E-1
1.077841303E1,4.929460287E-1,-1.981584549E0,-2.353315353E-1
1.078820003E1,5.511641502E-3,-1.721278906E0,-4.166250229E-1
1.079819703E1,-4.120097756E-1,-1.421580076E0,-7.243518829E-1
1.080848003E1,-7.224407196E-1,-1.196272135E0,-1.142427444E0
1.081919103E1,-8.935489655E-1,-1.048068047E0,-1.577829361E0
1.082822603E1,-9.821437597E-1,-9.397492409E-1,-2.002634525E0
1.083825103E1,-1.018372893E0,-7.981646061E-1,-2.380532742E0
1.084819503E1,-9.857975245E-1,-6.437542439E-1,-2.600310326E0
1.085838303E1,-8.550937176E-1,-5.206029415E-1,-2.549334526E0
1.086822003E1,-7.379006147E-1,-3.874690533E-1,-2.465981007E0
1.087823203E1,-6.439244747E-1,-2.525501251E-1,-2.378036022E0
1.088903203E1,-5.511662960E-1,-7.407617569E-2,-2.268166542E0
1.089821103E1,-4.784826040E-1,1.135668755E-1,-2.151004314E0
1.090818003E1,-3.872358799E-1,2.564725876E-1,-1.897631168E0
1.091816503E1,-3.466116190E-1,3.119053841E-1,-1.508628845E0
1.092824303E1,-3.549232483E-1,3.348965645E-1,-1.147447109E0
1.093893703E1,-3.433715105E-1,3.570461273E-1,-8.000340462E-1
1.094821303E1,-3.127000332E-1,3.530778885E-1,-4.369459152E-1
1.095820903E1,-2.727490664E-1,3.073272705E-1,-1.358833313E-1
1.096825403E1,-2.562921047E-1,2.488884926E-1,1.305112839E-1
1.097829403E1,-2.033239603E-1,1.515169144E-1,2.982511520E-1
1.098898303E1,-9.443700314E-2,4.550695419E-2,4.381361008E-1
1.099820503E1,-1.184463501E-3,2.303457260E-2,5.042409897E-1
1.100915703E1,5.754911900E-2,1.551961899E-2,8.239107132E-1
1.101818203E1,1.323094368E-1,2.367401123E-2,8.238668442E-1
1.102839803E1,2.523097992E-1,5.927658081E-2,1.012013435E0
1.103819603E1,4.270846844E-1,4.453039169E-2,1.170660973E0
1.104836203E1,7.366855741E-1,5.313491821E-2,1.584394455E0
1.105919203E1,7.760515809E-1,6.572532654E-2,1.831315041E0
1.106837603E1,8.325557709E-1,5.564403534E-2,2.066953659E0
1.107827103E1,8.982437849E-1,1.554584503E-2,2.237718582E0
1.108839703E1,9.820075035E-1,-8.270740509E-3,2.371275902E0
1.109826603E1,9.910614491E-1,2.301931381E-2,2.460529327E0
1.110900203E1,8.655639291E-1,2.464642525E-1,2.482056618E0
1.111816603E1,7.926173210E-1,5.675806999E-1,2.415359497E0
1.112819603E1,8.858405948E-1,8.424711227E-1,2.284133911E0
1.113850703E1,1.121018529E0,1.066954136E0,2.061990738E0
1.114834403E1,1.342288017E0,1.237840176E0,1.904147148E0
1.115887803E1,1.667492270E0,1.244379044E0,1.910202980E0
1.116816703E1,2.004963875E0,1.127722263E0,2.172099113E0
1.117826103E1,2.218314648E0,8.881659508E-1,2.625714302E0
1.118820403E1,2.333074331E0,4.326605797E-1,3.154808998E0
1.119821603E1,2.063717842E0,-2.120718956E-1,3.731162071E0
1.120926803E1,1.349774480E0,-7.517321110E-1,4.164278984E0
1.121823503E1,4.813376069E-1,-1.294291973E0,4.248668671E0
1.122910203E1,-2.908009291E-1,-1.840807915E0,4.155483246E0
1.123822003E1,-9.318789244E-1,-2.176468849E0,3.826896667E0
1.124846103E1,-1.344509244E0,-2.322405815E0,3.207864761E0
1.125833803E1,-1.414908886E0,-2.435669899E0,2.344235420E0
1.126820603E1,-1.218457103E0,-2.446280479E0,1.490461349E0
1.127922603E1,-8.273086548E-1,-2.357407093E0,5.343246460E-1
1.128824203E1,-2.394101620E-1,-2.315381527E0,-5.487070084E-1
1.129823603E1,4.058308601E-1,-2.307419062E0,-1.352311134E0
1.130819903E1,9.802821279E-1,-2.275399446E0,-1.872642040E0
1.131817503E1,1.428865075E0,-2.307579041E0,-2.087637901E0
1.132831703E1,1.758499742E0,-2.356301069E0,-1.922892570E0
1.134050003E1,1.971756101E0,-2.408002853E0,-1.589466572E0
1.134887103E1,1.979629517E0,-2.472131491E0,-1.156502247E0
1.135822603E1,1.812992215E0,-2.492826939E0,-6.614685059E-1
1.136826503E1,1.539913058E0,-2.465909243E0,-3.397808075E-1
1.137825203E1,1.279030800E0,-2.425291777E0,-1.022891998E-1
1.138829103E1,9.347571135E-1,-2.374350548E0,1.281442642E-1
1.139866903E1,5.673617125E-1,-2.242831945E0,3.527688980E-1
1.140819103E1,3.250260353E-1,-2.138155460E0,5.191326141E-1
1.141816703E1,2.431415319E-1,-2.072165251E0,3.777275085E-1
1.142871103E1,3.494441509E-1,-1.986165762E0,-9.015846252E-2
1.143835303E1,5.274094343E-1,-1.816092253E0,-7.289175987E-1
1.144835403E1,7.657703161E-1,-1.652765274E0,-1.392739296E0
1.145827903E1,1.008448601E0,-1.570467710E0,-1.977925301E0
1.146918003E1,1.250974774E0,-1.480726004E0,-2.509265423E0
1.147820303E1,1.371846914E0,-1.403980732E0,-2.921417713E0
1.148821903E1,1.355602741E0,-1.300755978E0,-3.156100750E0
1.149816703E1,1.244461536E0,-1.212100983E0,-3.181545734E0
1.150827103E1,1.074480057E0,-1.114395380E0,-3.061421394E0
1.151825803E1,8.803830147E-1,-1.002540350E0,-2.667827129E0
1.152838803E1,7.126290798E-1,-8.878080845E-1,-2.189302444E0
1.153837903E1,5.723611116E-1,-7.489907742E-1,-1.655479431E0
1.154834003E1,4.564520121E-1,-6.023380756E-1,-1.150629997E0
1.155830603E1,3.346538544E-1,-4.303536415E-1,-7.826137543E-1
1.156819103E1,2.225501537E-1,-2.359557152E-1,-5.078430176E-1
1.157853003E1,5.488920212E-2,1.295900345E-2,-1.714944839E-1
1.158880403E1,9.665882587E-2,3.524799347E-1,5.740833282E-2
1.159824803E1,1.451077461E-1,4.585304260E-1,2.615852356E-1
1.160970603E1,1.579821110E-1,4.823117256E-1,5.901374817E-1
1.161821203E1,1.061768532E-1,5.259809494E-1,9.966754913E-1
1.162827903E1,7.634830475E-2,5.074653625E-1,1.439426422E0
1.163827003E1,-1.566731930E-2,4.765620232E-1,1.889159203E0
1.164829903E1,-1.491636038E-1,4.121885300E-1,2.379858017E0
1.165844203E1,-2.315733433E-1,3.382797241E-1,2.821524620E0
1.166824003E1,-2.285141945E-1,2.182464600E-1,3.059613228E0
1.167823803E1,-1.753243208E-1,1.365008354E-1,3.104739189E0
1.168822603E1,-1.437467337E-1,1.504006386E-1,3.002960205E0
1.169834503E1,-1.239842176E-1,2.209992409E-1,2.897960663E0
1.170989903E1,-8.468234539E-2,3.292779922E-1,2.828385353E0
1.171827503E1,-1.042195559E-1,4.693241119E-1,2.653408051E0
1.172820603E1,-1.255847216E-1,6.500539780E-1,2.354727745E0
1.173823103E1,1.132525206E-1,7.775344849E-1,2.193229675E0
1.174822603E1,6.652572751E-1,7.674155235E-1,2.179835320E0
1.175901803E1,1.440131783E0,6.483449936E-1,2.460205078E0
1.176815003E1,2.115777969E0,5.827364922E-1,2.930313110E0
1.177818503E1,2.603342056E0,2.551579475E-1,3.509975433E0
1.178833503E1,2.813096523E0,-3.456478119E-1,4.166234016E0
1.179822603E1,2.572612286E0,-9.173715115E-1,4.809720993E0
1.180867603E1,1.917408466E0,-1.532608271E0,5.261043549E0
1.181820303E1,1.084405780E0,-2.083296299E0,5.457614899E0
1.182827703E1,3.109902740E-1,-2.465367794E0,5.229820251E0
1.183835103E1,-1.558471918E-1,-2.704845905E0,4.521691322E0
1.184823003E1,-3.490649462E-1,-2.769653559E0,3.485422134E0
1.185827303E1,-1.529510021E-1,-2.740391493E0,2.358343124E0
1.186823003E1,4.757341146E-1,-2.659678459E0,1.740837097E0
1.187826103E1,1.120429754E0,-2.409974337E0,1.032064438E0
1.188822303E1,1.859552145E0,-2.210895777E0,-1.704216003E-3
1.189831003E1,2.687535763E0,-2.276233673E0,-8.279638290E-1
1.190828203E1,3.251690149E0,-2.403074503E0,-1.410639763E0
1.191840003E1,3.440715790E0,-2.437636375E0,-1.772014141E0
1.192823503E1,3.411730528E0,-2.414119720E0,-2.066346645E0
1.193824603E1,3.303153992E0,-2.337550402E0,-2.094736099E0
1.194822103E1,3.116447210E0,-2.209531784E0,-1.941580296E0
1.195824803E1,2.819676876E0,-2.086161375E0,-1.582724571E0
1.196814603E1,2.405154943E0,-1.967695951E0,-1.242103100E0
1.197820803E1,1.883292198E0,-1.864826679E0,-1.009545326E0
1.199074103E1,8.130759597E-1,-1.717298031E0,-8.833999634E-1
1.200824103E1,5.774384737E-1,-1.659084797E0,-1.383347511E0
1.201868303E1,5.390671492E-1,-1.757155180E0,-1.722056866E0
1.202837303E1,4.816116095E-1,-1.750476122E0,-1.813374996E0
1.203825603E1,3.621253967E-1,-1.429368496E0,-2.290310383E0
1.204837603E1,3.801541328E-1,-1.193557978E0,-2.631961823E0
1.205835203E1,4.473673105E-1,-1.047433615E0,-2.714817047E0
1.206833503E1,4.476454258E-1,-8.768558502E-1,-2.735525131E0
1.207827803E1,4.342335463E-1,-6.976263523E-1,-2.804164886E0
1.208829503E1,4.403082132E-1,-5.700230598E-1,-2.831455708E0
1.209818903E1,4.570330381E-1,-4.457173347E-1,-2.764499664E0
1.210831403E1,4.718410969E-1,-2.972192764E-1,-2.560689926E0
1.211819103E1,4.779564142E-1,-1.514563560E-1,-2.266949177E0
1.212831403E1,2.568132877E-1,8.757209778E-2,-1.866250038E0
1.213820303E1,-2.226018906E-2,2.924466133E-1,-1.471368313E0
1.214843703E1,-3.031163216E-1,4.795732498E-1,-9.413847923E-1
1.215978503E1,-4.327729940E-1,5.849485397E-1,-2.673540115E-1
1.216820503E1,-4.018847942E-1,6.869454384E-1,2.590141296E-1
1.217825903E1,-2.402443886E-1,7.833647728E-1,6.960315704E-1
1.218823403E1,-3.095102310E-2,9.301271439E-1,1.074472427E0
1.219823603E1,2.084194422E-1,1.082370281E0,1.550774574E0
1.220832003E1,3.241221905E-1,1.206437588E0,2.076128006E0
1.221822503E1,2.956066132E-1,1.227199078E0,2.480891228E0
1.222826003E1,9.928870201E-2,1.213455200E0,2.689913750E0
1.223822203E1,-2.504627705E-1,1.210130692E0,2.698204994E0
1.224830303E1,-5.680735111E-1,1.223508358E0,2.677364349E0
1.225821403E1,-6.967227459E-1,1.225599289E0,2.776995659E0
1.226830203E1,-5.458555222E-1,1.233372211E0,2.906177521E0
1.227858603E1,-2.151873112E-1,1.223125935E0,2.987484932E0
1.228834803E1,9.750127792E-2,1.235800266E0,2.984951973E0
1.229820803E1,4.706372023E-1,1.327112198E0,2.957457542E0
1.230833603E1,9.184402227E-1,1.350752354E0,2.903111458E0
1.231821103E1,1.402934432E0,1.286257267E0,2.889854431E0
1.232870503E1,1.832119465E0,1.249411106E0,2.934836388E0
1.233838803E1,2.125638962E0,1.107773781E0,3.142971992E0
1.234963203E1,2.436457396E0,6.844010353E-1,3.511436462E0
1.235827103E1,2.532300949E0,3.028869629E-2,3.900871277E0
1.236822903E1,2.101976871E0,-5.934209824E-1,4.004757881E0
1.237823603E1,1.250256062E0,-1.064183235E0,3.814522743E0
1.238830303E1,3.472714424E-1,-1.527320147E0,3.320082664E0
1.239858303E1,-3.561073542E-1,-1.968622684E0,2.694350243E0
1.240838403E1,-9.222199917E-1,-2.164799213E0,2.052494049E0
1.241825403E1,-1.316531181E0,-2.245263338E0,1.506341934E0
1.242821803E1,-1.435673714E0,-2.226106644E0,1.059318542E0
1.243832203E1,-1.268875718E0,-2.265737057E0,4.656190872E-1
1.244837003E1,-9.006398916E-1,-2.369353056E0,-2.099790573E-1
1.245824703E1,-5.012127161E-1,-2.460430861E0,-7.831978798E-1
1.246910303E1,-1.463187933E-1,-2.539364100E0,-1.058640480E0
1.247827203E1,9.870862961E-2,-2.594996929E0,-1.071642876E0
1.248827003E1,2.177928686E-1,-2.595757484E0,-9.068665504E-1
1.249821803E1,2.252192497E-1,-2.601432800E0,-6.530590057E-1
1.250824403E1,1.658058167E-1,-2.555896044E0,-4.287614822E-1
1.251883303E1,1.154246330E-1,-2.513020992E0,-2.826280594E-1
1.252822903E1,1.134344339E-1,-2.489545822E0,-2.513980865E-1
1.253824003E1,9.667074680E-2,-2.382333279E0,-2.594223022E-1
1.254822103E1,9.854531288E-2,-2.235588312E0,-3.004808426E-1
1.255845003E1,1.155234575E-1,-2.127803564E0,-3.802986145E-1
1.256841903E1,1.176789999E-1,-2.007197142E0,-5.390815735E-1
1.257821003E1,1.501938105E-1,-1.863345861E0,-7.806591988E-1
1.258851103E1,2.222644687E-1,-1.721332550E0,-1.106457710E0
1.259829903E1,3.036535382E-1,-1.596246481E0,-1.509541512E0
1.260820903E1,3.962989450E-1,-1.467696428E0,-1.856842995E0
1.261884503E1,4.889175296E-1,-1.343201399E0,-2.135280132E0
1.262828303E1,5.739351511E-1,-1.198577881E0,-2.348539352E0
1.263840503E1,7.179755569E-1,-1.113150120E0,-2.465189457E0
1.264838403E1,8.144319057E-1,-9.995577335E-1,-2.196315765E0
1.265822103E1,9.081133604E-1,-8.679797649E-1,-2.000350475E0
1.266815303E1,8.560073376E-1,-7.405104637E-1,-1.858587265E0
1.267825003E1,6.985831857E-1,-6.342306137E-1,-1.841585159E0
1.269158603E1,5.369043946E-1,-4.915986061E-1,-1.777658463E0
1.270831403E1,4.923853278E-1,-1.667218208E-1,-1.495691776E0
1.271906303E1,5.996420383E-1,-1.722002029E-2,-1.251019001E0
1.272841103E1,7.175656557E-1,9.029579163E-2,-9.986238480E-1
1.273822603E1,8.190457821E-1,1.863694191E-1,-7.197370529E-1
1.274819703E1,8.713439107E-1,2.302207947E-1,-3.922338486E-1
1.275824603E1,8.971755505E-1,2.454752922E-1,6.270408630E-3
1.276820103E1,8.508442640E-1,2.375211716E-1,4.844045639E-1
1.277824403E1,8.640643954E-1,2.464923859E-1,9.336748123E-1
1.278825103E1,8.344382048E-1,2.332820892E-1,1.319190979E0
1.279817503E1,7.326394320E-1,2.366032600E-1,1.666163445E0
1.280969403E1,5.739129782E-1,2.585353851E-1,1.852931976E0
1.281817903E1,4.586685002E-1,2.603211403E-1,2.038986206E0
1.282835303E1,4.611331224E-1,1.825985909E-1,2.158149719E0
1.283825703E1,5.607149005E-1,2.364015579E-2,2.014933586E0
1.284824103E1,5.517784357E-1,-3.991889954E-2,1.726862907E0
1.285866203E1,4.023081660E-1,9.934568405E-2,1.605302811E0
1.286816003E1,2.428333312E-1,2.962589264E-1,1.640592575E0
1.287829103E1,2.124918401E-1,4.351596832E-1,1.815422058E0
1.288876003E1,3.059248626E-1,4.871644974E-1,2.067472458E0
1.289826303E1,4.402903914E-1,5.334687233E-1,2.318447113E0
1.290868103E1,6.057587862E-1,5.928444862E-1,2.572722435E0
1.291815703E1,7.394056916E-1,6.536841393E-1,2.919293404E0
1.292945603E1,9.227291942E-1,6.279096603E-1,3.348978043E0
1.293822003E1,1.378450990E0,3.950147629E-1,3.819886208E0
1.294817603E1,1.977953672E0,9.063243866E-3,4.255525589E0
1.295821503E1,2.410016298E0,-4.292006493E-1,4.407295227E0
1.296818203E1,2.505079269E0,-8.459346294E-1,4.511803627E0
1.297850203E1,2.194920778E0,-1.071867943E0,4.448818207E0
1.298822803E1,1.574724674E0,-1.223550081E0,4.143486977E0
1.299817203E1,9.774495363E-1,-1.457498789E0,3.686456680E0
1.300838903E1,5.316926241E-1,-1.851753950E0,2.979677200E0
1.301818703E1,2.920018733E-1,-2.330223083E0,2.070387840E0
1.302825103E1,8.468056470E-2,-2.570826530E0,9.584999084E-1
1.303828603E1,-8.974442631E-2,-2.700417519E0,-5.731868744E-2
1.304903003E1,-2.469159216E-1,-2.724277496E0,-9.170985222E-1
1.305821303E1,-2.406790853E-1,-2.571541071E0,-1.611656189E0
1.306825003E1,-7.138809562E-2,-2.378146648E0,-2.147471905E0
1.307829403E1,2.946737111E-1,-2.157461166E0,-2.475265980E0
1.308836803E1,8.201506138E-1,-1.980116129E0,-2.536731720E0
1.309875203E1,1.347845674E0,-1.877513409E0,-2.318882465E0
1.310844003E1,1.696317673E0,-1.828740835E0,-1.877110481E0
1.311827303E1,1.844288111E0,-1.826825142E0,-1.249444485E0
1.312866203E1,1.797425747E0,-1.805871010E0,-7.276263237E-1
1.313840703E1,1.477799773E0,-1.814250708E0,-5.552439690E-1
1.314897403E1,1.059637427E0,-1.595529318E0,-7.534298897E-1
1.315823003E1,6.157137156E-1,-1.473588705E0,-8.254814148E-1
1.316831403E1,2.192139924E-1,-1.434306145E0,-8.125286102E-1
1.317879303E1,-1.902661026E-1,-1.387041092E0,-1.408749104E0
1.318837003E1,-1.386865973E-1,-1.376231194E0,-1.412289143E0
1.319865603E1,-1.582567990E-1,-1.160501242E0,-1.849874020E0
1.320826403E1,-2.528757453E-1,-7.728641033E-1,-2.210946560E0
1.321859703E1,-1.757179499E-1,-5.525083542E-1,-2.371074677E0
1.322861603E1,1.241320372E-2,-4.918718338E-1,-2.393799305E0
1.323827603E1,9.786009789E-2,-3.660736084E-1,-2.451770782E0
1.324898803E1,2.787906229E-1,-2.615637779E-1,-2.381652832E0
1.325837203E1,3.866979182E-1,-2.372388840E-1,-2.044082165E0
1.326842403E1,4.178092480E-1,-1.281824112E-1,-1.595772743E0
1.327824803E1,4.498766661E-1,-3.561258316E-2,-1.301942348E0
1.328847603E1,4.142101705E-1,1.816606522E-2,-8.349566460E-1
1.329855803E1,3.752178848E-1,1.015791893E-1,-3.831195831E-1
1.330839303E1,4.610455930E-1,1.248664856E-1,-2.376174927E-1
1.331823403E1,4.740357101E-1,1.648621559E-1,-3.722925186E-1
1.332819303E1,9.265518188E-1,2.648825645E-1,-5.885095596E-1
1.333855403E1,9.862009287E-1,2.670717239E-1,-5.570783615E-1
1.334827603E1,1.153947830E0,-1.444778442E-1,-5.424661636E-1
1.335824803E1,1.550327241E-1,5.332555771E-1,-5.129041672E-1
1.336919503E1,-6.129484177E-1,1.195295811E0,-1.705169678E-1
1.337824703E1,-5.716670752E-1,7.481818199E-1,4.287586212E-1
1.338822603E1,-1.886617541E-1,1.995744705E-1,7.297410965E-1
1.339822403E1,-2.943885326E-2,-3.948593140E-2,8.994722366E-1
1.340833703E1,-1.130701900E-1,2.499818802E-2,1.492772102E0
1.341896503E1,-1.893883348E-1,1.084170341E-1,2.275749207E0
1.342837903E1,-8.174699545E-2,9.564971924E-2,2.544141769E0
1.343832003E1,1.613676548E-2,1.292214394E-1,2.625956535E0
1.344824303E1,-8.826512098E-2,4.729433060E-1,2.654957771E0
1.345823703E1,-1.179177761E-1,7.356224060E-1,2.771994591E0
1.346879803E1,9.154677391E-4,7.558469772E-1,3.009317398E0
1.347823003E1,2.449465692E-1,7.234158516E-1,3.571475983E0
1.348828603E1,5.249351263E-1,6.623482704E-1,4.018757820E0
1.349893703E1,8.185337782E-1,6.081886292E-1,4.339305878E0
1.350840503E1,1.347751260E0,2.617402077E-1,4.783882141E0
1.351822903E1,1.854953527E0,-2.682633400E-1,4.999772072E0
1.352824203E1,1.976682067E0,-7.090456486E-1,4.873386383E0
1.354233303E1,8.756852746E-1,-1.552083492E0,3.769078255E0
1.355963103E1,3.905542195E-2,-1.804368734E0,3.029626846E0
1.356814703E1,-7.016376257E-1,-2.045585632E0,2.351229668E0
1.357819703E1,-1.329719543E0,-2.228641272E0,1.558831215E0
1.359249003E1,-1.992425919E0,-2.251781464E0,1.136331558E-1
1.360847803E1,-1.912851334E0,-2.231342793E0,-4.968090057E-1
1.361886103E1,-1.567615867E0,-2.130292416E0,-1.100767612E0
1.362839303E1,-1.101102471E0,-2.069421768E0,-1.516112804E0
1.363822903E1,-6.371642351E-1,-1.997027397E0,-1.700488567E0
1.364821103E1,-2.246036977E-1,-1.955266714E0,-1.755972385E0
1.365836203E1,9.585106373E-2,-1.967175484E0,-1.622254372E0
1.366839403E1,3.092677593E-1,-1.979407549E0,-1.402083397E0
1.367841403E1,4.065088332E-1,-2.020871639E0,-1.196840763E0
1.368825903E1,4.309199154E-1,-2.073662281E0,-1.054504395E0
1.369825403E1,3.532537818E-1,-2.063173294E0,-8.005814552E-1
1.370865303E1,1.754689217E-2,-1.984789848E0,-6.576213837E-1
1.371834903E1,-6.940633059E-3,-1.973499775E0,-6.669445038E-1
1.372833903E1,-3.960385919E-1,-1.862546921E0,-5.472898483E-1
1.373991703E1,-5.376018882E-1,-1.791682482E0,-5.739583969E-1
1.374821503E1,-6.426035166E-1,-1.742114782E0,-7.460145950E-1
1.375821303E1,-7.574945092E-1,-1.691484690E0,-9.650053978E-1
1.376818803E1,-8.257564306E-1,-1.665048122E0,-1.194323063E0
1.377818903E1,-8.784490228E-1,-1.629222870E0,-1.359780312E0
1.379287603E1,-8.019628525E-1,-1.596739531E0,-1.327529430E0
1.380853003E1,-4.673432410E-1,-1.447492599E0,-1.098096371E0
1.382118203E1,-2.447786033E-1,-1.416154146E0,-9.492950439E-1
1.383893103E1,-7.954043150E-2,-1.211290598E0,-7.496881485E-1
1.384848203E1,9.421229362E-3,-1.087663651E0,-6.597032547E-1
1.385823303E1,1.077020764E-1,-9.504871368E-1,-5.084095001E-1
1.386874003E1,2.162342072E-1,-7.623820305E-1,-3.519620895E-1
1.387836503E1,3.661925793E-1,-6.273407936E-1,-1.949768066E-1
1.388823103E1,5.063025951E-1,-5.651464462E-1,-5.375957489E-2
1.389819203E1,5.611984134E-1,-4.338994026E-1,-2.707481384E-2
1.390826703E1,5.846274495E-1,-2.803745270E-1,-1.649570465E-2
1.391907503E1,6.430687308E-1,-2.225575447E-1,7.310104370E-2
1.392823603E1,7.188245654E-1,-1.506352425E-1,1.992540359E-1
1.393823303E1,7.904217839E-1,-1.000337601E-1,3.737974167E-1
1.394817103E1,8.258579373E-1,-3.373098373E-2,6.756553650E-1
1.395853303E1,7.707040906E-1,6.608581543E-2,1.055737495E0
1.396826503E1,6.556802988E-1,1.547999382E-1,1.327582359E0
1.397825003E1,5.028532743E-1,2.267127037E-1,1.527997017E0
1.398928103E1,3.987608552E-1,2.421059608E-1,1.681979179E0
1.399821303E1,3.587926626E-1,2.344231606E-1,1.829947472E0
1.400822203E1,3.444164991E-1,2.857828140E-1,1.966420174E0
1.401814603E1,3.683423400E-1,4.648408890E-1,2.087006569E0
1.402826603E1,5.334098339E-1,5.713958740E-1,2.282821655E0
1.404080803E1,8.898689151E-1,6.019444466E-1,2.384390831E0
1.405825103E1,1.750122905E0,3.853678703E-1,2.782478333E0
1.406817803E1,2.071809769E0,3.866090775E-1,3.202042580E0
1.407827703E1,2.379553318E0,3.580360413E-1,3.690304756E0
1.408817803E1,2.843939304E0,-8.532381058E-2,3.944766998E0
1.409820303E1,3.173386097E0,-8.452982903E-1,4.155885696E0
1.410882003E1,2.774225235E0,-1.351681948E0,4.115296364E0
1.411825803E1,1.792157292E0,-1.637086153E0,3.947049141E0
1.412857103E1,8.523242474E-1,-2.018540382E0,3.646362305E0
1.413822903E1,1.658204794E-1,-2.454336405E0,3.262844086E0
1.414825003E1,-4.580646455E-1,-2.697493076E0,2.715102196E0
1.415849803E1,-9.189614058E-1,-2.835362434E0,2.213694572E0
1.416826003E1,-1.180741310E0,-2.835359097E0,1.807528496E0
1.417821003E1,-1.265307903E0,-2.616844177E0,1.175971985E0
1.418823703E1,-1.000817299E0,-2.438686371E0,3.371715546E-1
1.419821003E1,-4.149895012E-1,-2.432195663E0,-3.653440475E-1
1.420911603E1,2.693982720E-1,-2.403337240E0,-8.170866966E-1
1.421822303E1,8.074281216E-1,-2.317457438E0,-1.120281696E0
1.422868403E1,1.251431465E0,-2.198016644E0,-1.243432999E0
1.424130803E1,1.741826534E0,-2.014995337E0,-1.246936321E0
1.425831603E1,1.677001238E0,-1.903239250E0,-1.041935444E0
1.426823803E1,6.389330626E-1,-1.632565975E0,-1.103453636E0
1.427825203E1,8.816477656E-2,-1.656683445E0,-1.225364685E0
1.428837103E1,-3.757413328E-1,-1.633372068E0,-1.310106754E0
1.429818603E1,-7.614763975E-1,-1.570803404E0,-1.527726173E0
1.430887203E1,-9.919166565E-1,-1.524261713E0,-1.746686935E0
1.431817503E1,-1.019865394E0,-1.439681530E0,-1.899236679E0
1.432834403E1,-9.601769447E-1,-1.294070244E0,-2.044239044E0
1.433850403E1,-8.727635145E-1,-1.105380297E0,-2.230893135E0
1.434856803E1,-7.076323032E-1,-9.689149857E-1,-2.314875126E0
1.435929203E1,-5.259865522E-1,-9.322960377E-1,-2.367711067E0
1.436817903E1,-3.948980272E-1,-9.134731293E-1,-2.403720856E0
1.437821903E1,-2.801104784E-1,-8.170015812E-1,-2.352272511E0
1.438818803E1,-1.505297422E-1,-7.222285271E-1,-2.160669327E0
1.439825603E1,-3.245294839E-2,-6.297354698E-1,-1.908285618E0
1.440850803E1,6.460399181E-2,-5.401535034E-1,-1.676839352E0
1.441819403E1,1.461529732E-1,-4.468169212E-1,-1.473223686E0
1.442820803E1,1.918155402E-1,-3.839693069E-1,-1.258713245E0
1.443839003E1,2.072094977E-1,-3.260951042E-1,-1.041881561E0
1.444835503E1,2.490715086E-1,-3.046469688E-1,-6.287016869E-1
1.445820503E1,2.361328155E-1,-2.942171097E-1,-1.915874481E-1
1.446813303E1,1.601658762E-1,-2.712073326E-1,2.732734680E-1
1.447824703E1,1.664528251E-2,-2.147336006E-1,7.335920334E-1
1.449157603E1,-1.622171104E-1,-1.192398071E-1,1.150802612E0
1.450819003E1,-4.860068858E-1,1.207170486E-1,1.972141266E0
1.451905503E1,-4.709516466E-1,2.064847946E-1,2.329229355E0
1.452860103E1,-3.792115152E-1,2.581515312E-1,2.674484253E0
1.453822603E1,-2.774932683E-1,3.317589760E-1,2.927187920E0
1.454818703E1,-6.147226691E-2,3.614177704E-1,3.099609375E0
1.455843103E1,2.315791100E-1,3.058438301E-1,3.148182869E0
1.456830403E1,2.218137830E-1,3.589873314E-1,3.116836548E0
1.457838103E1,3.944948316E-1,4.794750214E-1,3.007926941E0
1.458903103E1,2.922261655E-1,6.398954391E-1,2.947196960E0
1.459842503E1,1.671437472E-1,8.358054161E-1,2.872757912E0
1.460827703E1,1.775665134E-1,1.016875744E0,2.760416031E0
1.461824803E1,4.030345976E-1,1.086070538E0,2.623678207E0
1.462833903E1,8.766939640E-1,1.029068470E0,2.558108330E0
1.463923303E1,1.562805414E0,7.977428436E-1,2.598483086E0
1.464820403E1,2.126354218E0,5.110340118E-1,2.686958313E0
1.465820903E1,2.364019871E0,1.974248886E-2,2.924757004E0
1.466822903E1,2.178569317E0,-5.142717361E-1,2.868721962E0
1.467819803E1,1.640330553E0,-1.144201517E0,2.857545853E0
1.469265703E1,-2.282965630E-1,-2.120063543E0,2.482139587E0
1.470819203E1,-9.372829795E-1,-2.372074604E0,1.841148376E0
1.471815903E1,-1.379870296E0,-2.647710323E0,1.236955643E0
1.472849203E1,-1.739320993E0,-2.698022366E0,9.103937149E-1
1.473820503E1,-1.947285414E0,-2.480696917E0,4.774799347E-1
1.474817003E1,-1.869510174E0,-2.313154221E0,-1.922626495E-1
1.475911803E1,-8.131637573E-1,-2.232345819E0,-1.133436203E0
1.476821203E1,-8.688792586E-1,-2.288902521E0,-1.102456093E0
1.477825103E1,-3.350135982E-1,-2.312374353E0,-1.439128876E0
1.478823703E1,5.855579674E-2,-2.367945433E0,-1.548497677E0
1.479818903E1,2.047048360E-1,-2.328440428E0,-1.394113064E0
1.480855203E1,1.272366792E-1,-2.309911251E0,-8.326611519E-1
1.481852803E1,6.246346980E-3,-2.399814844E0,-3.631715775E-1
1.482831103E1,-1.999526620E-1,-2.364804983E0,-1.309509277E-1
1.483837403E1,-4.459289908E-1,-2.244189501E0,-2.731046677E-1
1.484823803E1,-6.250902414E-1,-2.172763586E0,-4.310636520E-1
1.485823103E1,-7.354012132E-1,-2.108425617E0,-6.810736656E-1
1.486812703E1,-7.741983533E-1,-2.051768780E0,-9.452533722E-1
1.487816803E1,-7.495236397E-1,-2.008159876E0,-1.269359112E0
1.488822603E1,-7.118714452E-1,-1.974129438E0,-1.662430286E0
1.489831503E1,-6.382366419E-1,-1.956423998E0,-1.950115681E0
1.490929103E1,-5.539683700E-1,-1.940137386E0,-2.077293396E0
1.491828003E1,-5.103521943E-1,-1.902345657E0,-2.007782459E0
1.492904803E1,-4.897904694E-1,-1.840033531E0,-1.800045013E0
1.493823703E1,-4.763957262E-1,-1.762000322E0,-1.614220142E0
1.494838403E1,-3.893660903E-1,-1.659628391E0,-1.369520187E0
1.495824303E1,-2.290634662E-1,-1.556868076E0,-1.117897034E0
1.496836903E1,-2.769348025E-2,-1.461534739E0,-9.624319077E-1
1.497954303E1,1.121313199E-1,-1.337677240E0,-9.455485344E-1
1.498823203E1,2.130130827E-1,-1.272667646E0,-9.295759201E-1
1.499822003E1,2.362092584E-1,-1.183395147E0,-8.573708534E-1
1.500841103E1,1.324510574E-1,-1.016671658E0,-8.573298454E-1
1.501823003E1,4.195873439E-2,-8.644027710E-1,-7.866816521E-1
1.502868903E1,-7.383972406E-4,-7.340989113E-1,-5.644893646E-1
1.503824203E1,-8.998811245E-4,-6.117508411E-1,-2.701511383E-1
1.504885003E1,1.157937944E-2,-5.283913612E-1,-3.413009644E-2
1.505826403E1,-2.153262496E-2,-4.207005501E-1,2.237510681E-1
1.506825403E1,-3.515081108E-2,-2.486739159E-1,5.175991058E-1
1.507822703E1,-5.758710206E-2,-1.889791489E-1,6.984567642E-1
1.508823703E1,5.502700806E-3,-1.275033951E-1,1.067233086E0
1.509895903E1,8.532088995E-2,-1.695728302E-2,1.475227356E0
1.510824503E1,1.554287672E-1,3.811788559E-2,1.725028038E0
1.511815403E1,2.646595538E-1,5.140733719E-2,1.947874069E0
1.512823203E1,2.768120468E-1,3.004217148E-2,2.161010742E0
1.513823703E1,2.167754918E-1,1.417975426E-1,2.533018112E0
1.514829703E1,1.168999821E-1,3.087234497E-1,2.806031227E0
1.515839203E1,1.688373834E-1,4.317731857E-1,3.057126045E0
1.516911503E1,2.613989115E-1,5.587377548E-1,3.233150482E0
1.517856303E1,4.624159932E-1,7.102460861E-1,3.368156433E0
1.518823903E1,7.619558573E-1,8.550200462E-1,3.602372169E0
1.519821303E1,1.059053183E0,9.686732292E-1,3.833143234E0
1.520852403E1,1.324443340E0,1.066836357E0,4.107221603E0
1.521826003E1,1.637643218E0,1.077636719E0,4.328850746E0
1.522882203E1,1.932325959E0,8.152227402E-1,4.355695724E0
1.523823403E1,2.205208302E0,3.373975754E-1,4.248433113E0
1.524881803E1,2.342911243E0,-2.902691364E-1,4.011164665E0
1.525838803E1,2.189302206E0,-9.132912159E-1,3.676555634E0
1.526880203E1,1.631726503E0,-1.387435198E0,3.393788338E0
1.527838003E1,8.419537544E-1,-1.654388189E0,3.082812309E0
1.528826403E1,1.879177988E-1,-1.900883436E0,2.586263657E0
1.529821703E1,-1.468406618E-1,-2.247373581E0,1.989501953E0
1.530823103E1,-2.215250283E-1,-2.611531496E0,1.335318565E0
1.531889903E1,-2.679772973E-1,-2.832553864E0,-1.051473618E-1
1.532820403E1,-2.012753040E-1,-2.904892921E0,-7.027721405E-2
1.533824603E1,2.049693316E-1,-2.599330425E0,-4.028730392E-1
1.534835303E1,4.946731329E-1,-2.467589140E0,-5.227785110E-1
1.535818903E1,8.002938032E-1,-2.310582161E0,-3.707933426E-1
1.536823303E1,1.075500369E0,-2.179162502E0,-4.203901291E-1
1.537852003E1,1.241851449E0,-2.057598591E0,-7.603778839E-1
1.539114903E1,1.430883050E0,-1.994873285E0,-1.298678398E0
1.540829303E1,1.654728889E0,-1.989236116E0,-1.676818371E0
1.541823603E1,1.536579251E0,-2.126118898E0,-1.789573669E0
1.542840603E1,1.188223004E0,-2.123975039E0,-1.973532200E0
1.543822803E1,7.346544266E-1,-2.047316313E0,-2.243139267E0
1.544823203E1,3.492858708E-1,-1.971761703E0,-2.567011356E0
1.545825303E1,8.395737410E-2,-1.926877737E0,-2.818057537E0
1.546827503E1,-1.808789372E-2,-1.869416952E0,-3.075710773E0
1.547822903E1,-2.410057187E-2,-1.802382231E0,-3.363978863E0
1.549224703E1,4.505217075E-4,-1.618716002E0,-3.343024254E0
1.550842703E1,-2.973771095E-2,-1.479871035E0,-2.887030602E0
1.551911003E1,-6.455314755E-1,-9.546461105E-1,-2.283044815E0
1.552818003E1,-3.023291826E-1,-8.354139328E-2,-1.573060036E0
1.553823903E1,-4.118429422E-1,2.614464760E-1,-1.332809448E0
1.554819603E1,-2.315360904E-1,1.554970741E-1,-1.275866508E0
1.555819403E1,1.947289705E-1,3.858137131E-2,-1.194698811E0
1.556905403E1,5.180789828E-1,-3.343963623E-2,-1.223941326E0
1.557826003E1,6.375640631E-1,-2.677202225E-2,-1.274249077E0
1.558834203E1,6.988382936E-1,1.651287079E-2,-1.388939857E0
1.559839903E1,6.798730493E-1,1.272349358E-1,-1.381472111E0
1.560832303E1,4.967333972E-1,2.249407768E-1,-1.242717743E0
1.561879703E1,1.285614967E-1,3.426413536E-1,-8.909220695E-1
1.562842003E1,-9.785848856E-2,3.831553459E-1,-3.009567261E-1
1.563824903E1,-2.472659349E-1,4.257860184E-1,4.349451065E-1
1.564820203E1,-5.006787777E-1,3.964912891E-1,9.395141602E-1
1.565828503E1,-6.214510798E-1,4.349975586E-1,1.728093147E0
1.566831203E1,-3.430573940E-1,2.969882488E-1,1.786428452E0
1.567821303E1,-6.761411428E-1,4.018058777E-1,1.739595413E0
1.568830103E1,-4.451669455E-1,4.262940884E-1,1.945292473E0
1.569831803E1,-2.152892351E-1,4.267268181E-1,2.305650711E0
1.570942703E1,1.680528224E-1,3.605575562E-1,2.704503059E0
1.571821203E1,5.338410735E-1,2.577126026E-1,2.800655365E0
1.572820603E1,7.744398117E-1,2.554204464E-1,2.739192009E0
1.573825903E1,8.166159391E-1,4.503588676E-1,2.673719406E0
1.574823103E1,7.405116558E-1,7.714955807E-1,2.809460640E0
1.575908003E1,6.782295704E-1,1.155405045E0,3.618292809E0
1.576818203E1,6.044774652E-1,1.469042540E0,4.424341202E0
1.577824003E1,5.294169784E-1,1.641519785E0,4.639315605E0
1.578833803E1,6.976537704E-1,1.618484974E0,4.324679375E0
1.579818303E1,1.011581659E0,1.554557800E0,3.791439056E0
1.580865703E1,1.358952880E0,1.087586164E0,3.511298180E0
1.581830703E1,1.612384200E0,6.809463501E-1,3.188374519E0
1.582890403E1,1.505808234E0,-3.405189514E-2,3.103188515E0
1.583826903E1,1.217171907E0,-5.983364582E-1,2.896671295E0
1.584817103E1,7.500409484E-1,-1.000702143E0,2.425437927E0
1.585833703E1,3.040750027E-1,-1.395678043E0,1.917470932E0
1.586833603E1,-6.757716835E-2,-1.837143660E0,5.735197067E-1
1.587885203E1,-7.631586790E-1,-2.593931913E0,1.458921432E-1
1.588826003E1,-1.154798746E0,-2.744534016E0,-1.128854752E-1
1.589818303E1,-1.458368301E0,-2.786374569E0,-2.331676483E-1
1.590843703E1,-1.625813484E0,-2.733029127E0,-2.454643250E-1
1.591823403E1,-1.680273652E0,-2.547835350E0,-2.160110474E-1
1.592822803E1,-1.630033493E0,-2.315329552E0,-2.000398636E-1
1.593824503E1,-1.453501821E0,-2.198067188E0,-2.439584732E-1
1.594874703E1,-1.185248613E0,-2.123713493E0,-5.234050751E-1
1.595819903E1,-8.882602453E-1,-2.078302383E0,-9.913253784E-1
1.596819503E1,-5.508802533E-1,-2.095941782E0,-1.323170185E0
1.597815703E1,-2.447023392E-1,-2.138299465E0,-1.343422890E0
1.598855203E1,-7.094621658E-3,-2.220967770E0,-1.420755863E0
1.599916103E1,1.140862405E-1,-2.304707289E0,-1.440807819E0
1.600822503E1,6.669014692E-2,-2.387539864E0,-1.376408100E0
1.601824303E1,-1.120554805E-1,-2.429606438E0,-1.200941563E0
1.602826103E1,-3.540618718E-1,-2.409526825E0,-1.170168400E0
1.603830703E1,-5.815110207E-1,-2.390373230E0,-1.100736618E0
1.604920303E1,-7.248588800E-1,-2.293708324E0,-1.105977535E0
1.605823803E1,-8.517836928E-1,-2.178577900E0,-1.113329887E0
1.606858003E1,-9.678065777E-1,-2.006516933E0,-1.045496464E0
1.607887103E1,-9.508391619E-1,-1.814931631E0,-1.086675167E0
1.608825903E1,-9.065462351E-1,-1.683251381E0,-1.120193958E0
1.609860403E1,-7.379240394E-1,-1.550430536E0,-1.156994343E0
1.610875203E1,-5.156168938E-1,-1.460707664E0,-1.237468719E0
1.611828803E1,-2.435601950E-1,-1.385047197E0,-1.340444565E0
1.612826203E1,1.889628172E-2,-1.304392099E0,-1.504395485E0
1.613830203E1,2.370978892E-1,-1.215216875E0,-1.610169411E0
1.614927603E1,3.171547055E-1,-1.092953682E0,-1.587468147E0
1.615819003E1,3.107250929E-1,-9.099533558E-1,-1.445053577E0
1.616838003E1,3.059676886E-1,-7.538774014E-1,-1.289985657E0
1.617827603E1,3.281099498E-1,-6.340904236E-1,-9.070477486E-1
1.618825303E1,3.942468464E-1,-5.275380611E-1,-4.283037186E-1
1.619856703E1,4.894923866E-1,-4.598066807E-1,-1.494216919E-1
1.620821803E1,5.844998360E-1,-4.080226421E-1,1.487102509E-1
1.621825603E1,6.114879847E-1,-3.184611797E-1,4.495840073E-1
1.622845803E1,5.599418879E-1,-2.325198650E-1,7.225933075E-1
1.623829703E1,4.996310472E-1,-1.341972351E-1,9.140691757E-1
1.624820503E1,4.573085904E-1,-8.289241791E-2,1.202507973E0
1.625832603E1,4.145807624E-1,-5.946445465E-2,1.490351677E0
1.626842503E1,3.361525536E-1,-3.895759583E-2,1.585062027E0
1.627829503E1,1.849960685E-1,-5.853509903E-2,1.609199524E0
1.628825103E1,-4.633784294E-3,-2.356910706E-2,1.502089500E0
1.629845703E1,-2.338308096E-2,2.979254723E-1,1.395425797E0
1.630964403E1,-4.941436052E-1,1.525788307E-1,1.591373444E0
1.631854003E1,-4.742928147E-1,3.635153770E-1,1.451680183E0
1.632824003E1,-1.270925999E-1,8.369188309E-1,1.912262917E0
1.633824403E1,1.434522271E-1,8.069915771E-1,2.162457466E0
1.634820103E1,3.191911578E-1,6.247110367E-1,2.497602463E0
1.635834503E1,4.450143278E-1,6.918640137E-1,2.858036041E0
1.636837503E1,5.825877190E-1,7.837610245E-1,3.364011765E0
1.637838303E1,7.686978579E-1,8.421397209E-1,3.844491959E0
1.639223103E1,1.473699331E0,4.592919350E-1,4.470720291E0
1.640839603E1,1.632419348E0,-6.269903183E-1,4.324205399E0
1.641917203E1,1.046698570E0,-9.869942665E-1,3.817216873E0
1.642817703E1,2.801055312E-1,-1.161695957E0,3.073005676E0
1.643838403E1,-3.345486522E-1,-1.446141958E0,2.135096550E0
1.644872303E1,-6.961966157E-1,-1.753183603E0,1.285519600E0
1.645826403E1,-8.519526124E-1,-1.935810566E0,7.347440720E-1
1.646913603E1,-8.088112473E-1,-2.079895973E0,3.595094681E-1
1.647844103E1,-6.877958775E-1,-2.069462538E0,3.638172150E-2
1.648821403E1,-3.836633563E-1,-2.008873224E0,-3.650207520E-1
1.649820603E1,2.023557425E-1,-2.042606115E0,-7.516126633E-1
1.650818703E1,8.327853084E-1,-2.065265417E0,-1.024133205E0
1.651880903E1,1.399857759E0,-2.045487165E0,-1.095865250E0
1.652823503E1,1.801017284E0,-2.016316175E0,-9.784107208E-1
1.653831103E1,1.986314535E0,-2.004160166E0,-8.829994202E-1
1.654821903E1,1.900719643E0,-1.953695536E0,-7.492647171E-1
1.655825603E1,1.519058466E0,-1.857627392E0,-6.576347351E-1
1.656823403E1,9.293813705E-1,-1.784679890E0,-6.012468338E-1
1.657824903E1,4.318589568E-1,-1.770354271E0,-6.935243607E-1
1.658817003E1,7.228696346E-2,-1.744548321E0,-9.912905693E-1
1.659817603E1,-2.602047324E-1,-1.665770292E0,-1.365118504E0
1.660842203E1,-5.045104027E-1,-1.534103870E0,-1.637512684E0
1.661827103E1,-5.670424104E-1,-1.435086727E0,-1.974759579E0
1.662921503E1,-5.040458441E-1,-1.367580652E0,-2.298228741E0
1.663835003E1,-4.131124616E-1,-1.225870848E0,-2.501779079E0
1.664852203E1,-3.080301285E-1,-1.042151213E0,-2.664751530E0
1.665825703E1,-1.865283251E-1,-8.971199989E-1,-2.671429157E0
1.666831703E1,-4.580354691E-2,-7.393388748E-1,-2.569516659E0
1.667887503E1,9.235024452E-2,-6.268599033E-1,-2.396778107E0
1.668826803E1,2.512891293E-1,-5.821924210E-1,-2.150597572E0
1.669825903E1,3.176549077E-1,-5.277426243E-1,-1.959945202E0
1.670820103E1,2.525735497E-1,-4.195482731E-1,-1.811507225E0
1.671826603E1,1.007121205E-1,-3.107182980E-1,-1.598828793E0
1.672846103E1,-6.965732574E-2,-2.266788483E-1,-1.309307575E0
1.673827403E1,-1.860926151E-1,-8.866786957E-2,-9.622707367E-1
1.674913403E1,-2.097617984E-1,3.795862198E-2,-5.532426834E-1
1.675826003E1,-1.179579496E-1,7.988166809E-2,-5.993938446E-2
1.676823303E1,-5.195182562E-2,1.437993050E-1,3.415460587E-1
1.677822803E1,2.779459953E-2,2.070703506E-1,6.194868088E-1
1.678826003E1,1.146850586E-1,2.564415932E-1,8.291511536E-1
1.679823603E1,1.366609335E-1,2.859148979E-1,9.638500214E-1
1.680991003E1,6.082546711E-2,3.573474884E-1,1.142080307E0
1.681870103E1,-4.381191730E-2,4.269084930E-1,1.450851440E0
1.682823103E1,-2.039531469E-1,5.083556175E-1,1.820741653E0
1.683827003E1,-3.724616170E-1,5.471091270E-1,2.237831116E0
1.684836903E1,-5.008036494E-1,5.081133842E-1,2.650554657E0
1.685822303E1,-5.159873366E-1,4.457674026E-1,2.942756653E0
1.686906003E1,-3.552868366E-1,3.631553650E-1,3.139695168E0
1.687820903E1,-4.986524582E-2,3.178744316E-1,3.267322540E0
1.688836003E1,2.290846705E-1,3.754405975E-1,3.252326965E0
1.689861403E1,4.147856534E-1,5.411610603E-1,3.171708107E0
1.690823203E1,5.673973560E-1,7.554554939E-1,2.967244148E0
1.691906003E1,8.239133954E-1,1.180249214E0,2.360589981E0
1.692878003E1,9.756217003E-1,1.285826206E0,2.119910240E0
1.693821603E1,9.459858537E-1,1.234542370E0,2.144238472E0
1.694823703E1,1.499097347E0,1.080187798E0,2.492632866E0
1.695820403E1,1.741530180E0,5.824446678E-1,2.603027344E0
1.696819303E1,1.754929543E0,-1.930613518E-1,2.602513313E0
1.697820103E1,1.113928318E0,-9.427895546E-1,3.147193909E0
1.698913603E1,1.708342433E-1,-1.378431559E0,3.311912537E0
1.699816603E1,-5.458986759E-1,-1.820971966E0,3.005968094E0
1.700826803E1,-1.088296652E0,-2.290030956E0,2.224411011E0
1.701839603E1,-1.536131740E0,-2.559368134E0,1.479884148E0
1.702832703E1,-1.830068827E0,-2.739505291E0,1.146621704E0
1.704136203E1,-2.141829967E0,-2.648962021E0,8.865194321E-1
1.705856303E1,-2.169013739E0,-2.288301706E0,-8.495807648E-2
1.706906903E1,-1.774552703E0,-2.329812765E0,-4.088916779E-1
1.707829703E1,-1.223657846E0,-2.425740957E0,-6.753296852E-1
1.708838703E1,-6.825180054E-1,-2.513305426E0,-8.521938324E-1
1.709820703E1,-3.110602200E-1,-2.544480085E0,-7.872929573E-1
1.710821303E1,-6.860460341E-2,-2.551155329E0,-5.965619087E-1
1.711844303E1,6.863500178E-2,-2.549940348E0,-4.253978729E-1
1.712824803E1,9.912381321E-2,-2.540938139E0,-2.939300537E-1
1.713822503E1,1.233458146E-2,-2.541026115E0,-2.351770401E-1
1.714836503E1,-1.691222042E-1,-2.517941713E0,-2.335996628E-1
1.715818703E1,-4.172092080E-1,-2.432259798E0,-2.496261597E-1
1.716830403E1,-6.182317138E-1,-2.297608614E0,-2.308959961E-1
1.717872003E1,-8.101811409E-1,-2.136704922E0,-2.670745850E-1
1.718836603E1,-8.925336599E-1,-2.051151037E0,-4.347352982E-1
1.719821403E1,-8.907527924E-1,-1.979558706E0,-7.399435043E-1
1.720869903E1,-8.437709212E-1,-1.874426126E0,-1.142334938E0
1.721820703E1,-7.378093600E-1,-1.730616808E0,-1.551084995E0
1.722912403E1,-5.965754986E-1,-1.567082167E0,-1.838131428E0
1.723825003E1,-3.737960458E-1,-1.386536121E0,-1.934234619E0
1.724827803E1,-1.266346276E-1,-1.249192476E0,-1.956675529E0
1.725971103E1,7.955093682E-2,-1.125925541E0,-1.835099220E0
1.726840503E1,1.672283560E-1,-1.000116110E0,-1.676044941E0
1.727824003E1,1.046362966E-1,-9.044997692E-1,-1.527235508E0
1.728835903E1,-3.505422175E-2,-8.523609638E-1,-1.407896519E0
1.729825303E1,-1.936338246E-1,-8.244173527E-1,-1.246788979E0
1.730830903E1,-3.328204751E-1,-7.921957970E-1,-1.121559620E0
1.731820403E1,-3.719898760E-1,-7.551879883E-1,-9.491705894E-1
1.732905603E1,-3.997444510E-1,-6.749243736E-1,-7.547779083E-1
1.733826503E1,-3.734716177E-1,-6.156630516E-1,-5.313625336E-1
1.734819603E1,-2.818988264E-1,-5.992498398E-1,-2.691469193E-1
1.735814003E1,-2.170665860E-1,-5.656733513E-1,7.372665405E-2
1.736820703E1,-1.918603927E-1,-5.105481148E-1,3.993453979E-1
1.737909603E1,-1.199175715E-1,-3.792610168E-1,6.387281418E-1
1.738825503E1,-1.759235561E-2,-2.367177010E-1,8.780984879E-1
1.739830503E1,1.320544481E-1,-2.586126328E-2,1.050202370E0
1.740859103E1,2.623080015E-1,1.250367165E-1,1.178166389E0
1.741827903E1,2.878708839E-1,2.396616936E-1,1.178090096E0
1.742929303E1,1.036864370E-1,4.505653381E-1,1.004521370E0
1.743823203E1,1.090348214E-1,4.328594208E-1,1.013106346E0
1.744881603E1,-7.651259750E-2,5.453648567E-1,9.302759171E-1
1.745860303E1,-2.369919121E-1,6.321291924E-1,9.873323441E-1
1.746940403E1,-4.769888520E-1,8.400225639E-1,1.110819817E0
1.747837703E1,-4.320151806E-1,9.184408188E-1,1.375866890E0
1.748835303E1,-2.307525873E-1,9.381346703E-1,1.681941986E0
1.749821903E1,3.573560715E-2,1.000722885E0,1.890248299E0
1.750825103E1,4.208744764E-1,1.020310879E0,2.063897133E0
1.751903903E1,8.650563955E-1,9.585962296E-1,2.234247208E0
1.752834103E1,1.308115482E0,9.025950432E-1,2.507977486E0
1.753824503E1,1.716989994E0,8.674807549E-1,2.817153931E0
1.754836003E1,2.059026718E0,6.897764206E-1,3.240367889E0
1.755817703E1,2.195373058E0,3.344793320E-1,3.517234802E0
1.756825703E1,1.974072933E0,-9.265041351E-2,3.575508118E0
1.757823803E1,1.385837436E0,-5.067100525E-1,3.509724617E0
1.758823803E1,5.403608084E-1,-8.414194584E-1,3.047959328E0
1.759826903E1,-3.384606540E-1,-9.650022984E-1,2.249108315E0
1.760989203E1,-8.486590385E-1,-1.136985064E0,1.646889687E0
1.761831603E1,-1.061761856E0,-1.320086956E0,1.136776924E0
1.762820903E1,-1.142102242E0,-1.376095772E0,7.405586243E-1
1.763824003E1,-1.092381954E0,-1.327420712E0,2.998905182E-1
1.764817803E1,-8.859925270E-1,-1.170813560E0,-2.869348526E-1
1.765835103E1,-3.847546577E-1,-1.142692566E0,-8.353552818E-1
1.766838103E1,2.800689936E-1,-1.218083858E0,-1.158436298E0
1.767833003E1,8.702236414E-1,-1.278562307E0,-1.281547546E0
1.768839003E1,1.346009016E0,-1.301054955E0,-1.242344856E0
1.769824503E1,1.714362860E0,-1.384235382E0,-1.187808037E0
1.770855003E1,1.835580826E0,-1.397513151E0,-1.092798710E0
1.771823803E1,1.742777586E0,-1.358925343E0,-9.553909302E-1
1.772887203E1,1.476810932E0,-1.357253075E0,-7.702422142E-1
1.773986103E1,9.766083956E-1,-1.331239700E0,-6.054754257E-1
1.774896503E1,3.338910639E-1,-1.236967802E0,-5.765037537E-1
1.775819203E1,-2.095255256E-1,-1.150594473E0,-6.906328201E-1
1.776834503E1,-5.363476276E-1,-1.147514582E0,-8.347735405E-1
1.777833003E1,-6.988624334E-1,-1.139004469E0,-1.022922516E0
1.778834803E1,-7.495585680E-1,-1.081872702E0,-1.263550758E0
1.779865803E1,-6.984965205E-1,-9.989843369E-1,-1.512531281E0
1.780837003E1,-4.940763414E-1,-8.999607563E-1,-1.787856579E0
1.781825303E1,-2.957945466E-1,-7.800917625E-1,-2.018909454E0
1.782854503E1,-6.768807769E-2,-6.666529179E-1,-2.104678631E0
1.783823603E1,9.557546675E-2,-5.956778526E-1,-2.261830807E0
1.785115103E1,2.199938744E-1,-4.783544540E-1,-2.376212120E0
1.786825503E1,3.008832335E-1,-1.742978096E-1,-2.298159122E0
1.787826603E1,2.778964639E-1,-4.520654678E-2,-2.084616661E0
1.788821303E1,2.455892265E-1,3.451919556E-2,-1.812384129E0
1.789885203E1,2.147442847E-1,7.899570465E-2,-1.525728703E0
1.790822503E1,1.549487114E-1,1.559643745E-1,-1.313507080E0
1.791820003E1,8.539134264E-2,2.496385574E-1,-1.171341419E0
1.792820003E1,5.110051110E-2,3.511729240E-1,-1.053485394E0
1.793850403E1,1.043770537E-1,4.323410988E-1,-9.511742592E-1
1.794823903E1,2.049694657E-1,5.305895805E-1,-8.425049782E-1
1.795823603E1,3.316102326E-1,6.393241882E-1,-6.607527733E-1
1.797091803E1,3.877037466E-1,6.661105156E-1,-1.654024124E-1
1.798820203E1,1.460524499E-1,4.606757164E-1,1.520814896E-1
1.799848103E1,-1.553938389E-1,4.237537384E-1,3.274679184E-1
1.800828803E1,-4.555771053E-1,4.741444588E-1,4.910087585E-1
1.801823403E1,-8.183011413E-1,5.985913277E-1,9.918994904E-1
1.802825103E1,-8.173924685E-1,5.818948746E-1,1.444951057E0
1.803820603E1,-7.631999850E-1,5.148091316E-1,1.878988266E0
1.804833003E1,-6.888002753E-1,5.436525345E-1,2.317729950E0
1.805820203E1,-5.080056190E-1,5.935916901E-1,2.687318802E0
1.806884403E1,-2.677485943E-1,5.834555626E-1,2.892599106E0
1.807818903E1,-1.026682034E-1,6.577744484E-1,2.883770943E0
1.808822703E1,-5.773308128E-2,7.998914719E-1,2.761566162E0
1.809858803E1,-1.200409234E-1,9.157381058E-1,2.597013474E0
1.810821103E1,-1.460164934E-1,9.438333511E-1,2.457178116E0
1.811819803E1,2.044102550E-2,8.013229370E-1,2.418364525E0
1.812818203E1,3.531394899E-1,4.616694450E-1,2.496250153E0
1.813822303E1,6.084098220E-1,4.157304764E-2,2.806951523E0
1.814820803E1,6.501445174E-1,-3.897013664E-1,3.067895889E0
1.815821703E1,3.682263196E-1,-9.013252258E-1,3.187504768E0
1.816816903E1,-1.837609708E-1,-1.424927473E0,3.233005524E0
1.817869603E1,-8.813968897E-1,-1.830339432E0,3.062203407E0
1.818820903E1,-1.655619144E0,-2.032416821E0,2.836772919E0
1.819819003E1,-2.286684752E0,-2.140931606E0,2.716798782E0
1.820819803E1,-2.715906382E0,-2.160080671E0,2.551600456E0
1.821862803E1,-2.814725161E0,-2.102506161E0,2.379486084E0
1.822835503E1,-2.485256195E0,-2.110286951E0,2.117211342E0
1.823824603E1,-1.785339713E0,-2.179115534E0,1.729731560E0
1.824901303E1,-9.702783823E-1,-2.214839935E0,1.351932526E0
1.825823003E1,-3.410458565E-1,-2.210063219E0,1.018766403E0
1.826822503E1,1.590983868E-1,-2.188892126E0,7.124176025E-1
1.827818003E1,6.021257043E-1,-2.237266541E0,3.707218170E-1
1.828826503E1,8.855864406E-1,-2.344609499E0,-8.329486847E-2
1.829877803E1,9.156394005E-1,-2.405025005E0,-5.620679855E-1
1.830829303E1,6.624175310E-1,-2.364265680E0,-9.456696510E-1
1.831825103E1,2.923788428E-1,-2.254419327E0,-1.209940910E0
1.832826903E1,-6.577759981E-2,-2.184451818E0,-1.294713974E0
1.833823703E1,-3.444092274E-1,-2.152749777E0,-1.316168308E0
1.834827303E1,-5.395632386E-1,-2.117120504E0,-1.384858131E0
1.835824003E1,-6.428105235E-1,-2.050956488E0,-1.483907700E0
1.836827803E1,-6.174337268E-1,-2.027602434E0,-1.639782906E0
1.837822003E1,-5.034255981E-1,-1.998367548E0,-1.787595749E0
1.838829103E1,-3.776271939E-1,-1.967154741E0,-1.935105324E0
1.839824703E1,-2.587142289E-1,-1.856589317E0,-2.119478226E0
1.840889603E1,-1.888882518E-1,-1.740889788E0,-2.248991489E0
1.841819203E1,-1.861401200E-1,-1.617391825E0,-2.258497715E0
1.842855103E1,-2.296380699E-1,-1.485748291E0,-2.186113358E0
1.844365503E1,-2.267477512E-1,-1.337826729E0,-1.776301384E0
1.845830803E1,-2.848560810E-1,-1.185226440E0,-1.413492203E0
1.846823003E1,-2.575834394E-1,-1.050248623E0,-1.026766777E0
1.847824703E1,-1.165542603E-1,-9.731516838E-1,-6.382966042E-1
1.848924303E1,3.016823530E-2,-8.910450935E-1,-3.323116302E-1
1.849818803E1,1.522890329E-1,-8.339195251E-1,-1.173973083E-1
1.850824103E1,2.157182097E-1,-7.812056541E-1,8.198833466E-2
1.851848703E1,1.757948399E-1,-7.167124748E-1,2.699499130E-1
1.852824003E1,6.824934483E-2,-6.587991714E-1,4.177703857E-1
1.853824503E1,-1.160053611E-1,-5.803465843E-1,5.561170578E-1
1.854828903E1,-3.269091845E-1,-5.379004478E-1,7.380371094E-1
1.855825803E1,-5.506336689E-1,-4.235496521E-1,8.274488449E-1
1.856821503E1,-4.963856637E-1,-3.688035011E-1,9.295921326E-1
1.857829203E1,-3.884539604E-1,-3.241724968E-1,1.037949562E0
1.858821403E1,-2.759013772E-1,-2.531452179E-1,1.167254448E0
1.859822703E1,-1.088126898E-1,7.098531723E-2,1.168385506E0
1.860814903E1,-3.588849306E-2,2.575969696E-1,1.152333260E0
1.861838003E1,-1.109787822E-1,4.111385345E-1,1.159905434E0
1.862902103E1,-2.701380849E-1,6.006388664E-1,1.168594360E0
1.863823103E1,-4.256176949E-1,7.725453377E-1,1.234360695E0
1.864820803E1,-4.700361192E-1,9.249038696E-1,1.343011856E0
1.865870003E1,-4.084932804E-1,9.820179939E-1,1.485258102E0
1.866836103E1,-2.052155584E-1,9.275999069E-1,1.758335114E0
1.867821403E1,3.948417306E-2,8.825945854E-1,2.080469131E0
1.868843303E1,2.735369802E-1,8.406071663E-1,2.325713158E0
1.869819603E1,5.137897730E-1,6.936569214E-1,2.682972908E0
1.870864403E1,7.908117175E-1,4.260177612E-1,3.054818153E0
1.871827003E1,1.042461276E0,5.264186859E-2,3.445834160E0
1.872888403E1,1.107754707E0,-3.060810566E-1,3.566477776E0
1.873829203E1,8.597913980E-1,-5.968153477E-1,3.580559731E0
1.874824303E1,2.771543860E-1,-7.930212021E-1,3.213765144E0
1.875833803E1,-2.694773078E-1,-1.026748180E0,2.602438927E0
1.876817303E1,-5.949792862E-1,-1.310696840E0,2.005165100E0
1.877888703E1,-8.901210427E-1,-1.509490490E0,1.445031166E0
1.878823903E1,-1.134976387E0,-1.651574135E0,1.060632706E0
1.879836003E1,-1.339802980E0,-1.664599419E0,6.608638763E-1
1.880821503E1,-1.299724579E0,-1.577857256E0,3.334045410E-2
1.881831503E1,-9.476107955E-1,-1.504310608E0,-4.849319458E-1
1.882913003E1,-3.260771632E-1,-1.461905479E0,-7.617797852E-1
1.883823103E1,4.825823009E-1,-1.528441668E0,-8.525581360E-1
1.884889803E1,1.157098413E0,-1.509854555E0,-8.208284378E-1
1.885828503E1,1.561646938E0,-1.345682621E0,-7.736263275E-1
1.886834003E1,1.818558335E0,-1.221866608E0,-6.170511246E-1
1.887881803E1,1.855837822E0,-1.075199842E0,-4.581823349E-1
1.888827703E1,1.663289189E0,-1.017962456E0,-2.691078186E-1
1.889820103E1,1.267270088E0,-9.793512821E-1,-1.676330566E-1
1.890876603E1,5.932049751E-1,-9.536609650E-1,-2.535505295E-1
1.891820303E1,-5.607873946E-2,-8.829777241E-1,-4.525671005E-1
1.892820703E1,-4.776495099E-1,-8.225357533E-1,-7.732582092E-1
1.893822203E1,-7.370146513E-1,-7.698988914E-1,-1.159115314E0
1.894818703E1,-8.151306510E-1,-7.008616924E-1,-1.414700985E0
1.895883203E1,-8.056671619E-1,-5.952813625E-1,-1.611480713E0
1.896927903E1,-7.181391716E-1,-4.476819038E-1,-1.764186859E0
1.897829403E1,-5.457315445E-1,-3.273508549E-1,-1.833878994E0
1.898824003E1,-3.598358035E-1,-2.187566757E-1,-1.856895924E0
1.899854003E1,-2.850178182E-1,-1.402661800E-1,-1.950713634E0
1.900841103E1,-2.792220116E-1,-1.179790497E-2,-2.028269291E0
1.901820003E1,-3.254100978E-1,1.076507568E-1,-2.112492085E0
1.902916503E1,-3.648674786E-1,1.969847679E-1,-2.137103081E0
1.903825703E1,-3.931748271E-1,2.771759033E-1,-2.036432266E0
1.904846703E1,-3.611968458E-1,3.142957687E-1,-1.852746487E0
1.905821403E1,-3.518807292E-1,2.837142944E-1,-1.683219910E0
1.906833503E1,-4.368789792E-1,3.044991493E-1,-1.483241558E0
1.907874403E1,-6.652987599E-1,2.954587936E-1,-7.627391815E-1
1.908844203E1,-6.569089890E-1,3.120794296E-1,-4.000759125E-1
1.909820903E1,-8.866329193E-1,3.973028660E-1,-4.342079163E-2
1.910823603E1,-9.554836154E-1,4.190492630E-1,3.324337006E-1
1.911828803E1,-1.035251498E0,4.695005417E-1,5.609321594E-1
1.912835903E1,-1.073902488E0,4.793953896E-1,6.920890808E-1
1.913841203E1,-1.087419748E0,5.108697414E-1,7.911605835E-1
1.914928403E1,-1.112081647E0,5.592441559E-1,8.186044693E-1
1.915850403E1,-1.171059966E0,5.849511623E-1,8.409481049E-1
1.916842403E1,-1.201714158E0,5.987718105E-1,9.085645676E-1
1.917877003E1,-1.246374607E0,6.192078590E-1,1.024676323E0
1.918827103E1,-1.214030862E0,6.222834587E-1,1.289546013E0
1.919821803E1,-1.031265497E0,4.351239204E-1,1.618032455E0
1.920821703E1,-8.827263117E-1,2.922534943E-1,1.957077026E0
1.921816903E1,-7.687419653E-1,2.490510941E-1,2.202432632E0
1.922857103E1,-7.257409096E-1,2.804660797E-1,2.330784798E0
1.923834103E1,-7.705268264E-1,4.874877930E-1,2.406110764E0
1.924838803E1,-8.084539175E-1,7.624001503E-1,2.455919266E0
1.925825103E1,-7.380952835E-1,9.311251640E-1,2.475153923E0
1.926823303E1,-5.665427446E-1,9.861698151E-1,2.459631920E0
1.927892603E1,-3.345447779E-1,9.806632996E-1,2.446207047E0
1.928850303E1,7.845497131E-2,9.148225784E-1,2.524019241E0
1.929837203E1,5.822405219E-1,6.284365654E-1,2.757147789E0
1.930853603E1,1.107012749E0,2.562842369E-1,3.146533966E0
1.931820703E1,1.437172771E0,-2.892475128E-1,3.440220833E0
1.932856503E1,1.405793905E0,-8.104894161E-1,3.335968018E0
1.933872403E1,9.166773558E-1,-1.230175257E0,2.962949753E0
1.934935203E1,1.387839168E-1,-1.555927038E0,2.184152603E0
1.935826903E1,-5.621076822E-1,-1.744795561E0,1.301244736E0
1.936832603E1,-1.113274097E0,-1.892777681E0,4.397239685E-1
1.937876403E1,-1.564068794E0,-2.009196281E0,-2.322692871E-1
1.938824003E1,-2.012939215E0,-1.897998095E0,-7.345094681E-1
1.939874603E1,-2.328534603E0,-1.748242378E0,-1.172247887E0
1.940881803E1,-2.404754877E0,-1.728722095E0,-1.539564610E0
1.941840003E1,-2.319852591E0,-1.772640467E0,-1.801684380E0
1.942821703E1,-2.156973362E0,-1.756845474E0,-1.987633705E0
1.943825203E1,-1.926016927E0,-1.810756683E0,-2.049776554E0
1.944912103E1,-1.535815716E0,-1.898222923E0,-1.818068027E0
1.945827903E1,-1.072235107E0,-1.932013988E0,-1.303754807E0
1.946834103E1,-6.974948049E-1,-1.943022490E0,-7.006378174E-1
1.947869603E1,-5.025273561E-1,-1.987866163E0,-1.213741302E-1
1.948882603E1,-4.223216176E-1,-2.039341450E0,3.083848953E-1
1.949828603E1,-6.471965313E-1,-1.913179874E0,5.759201050E-1
1.950826803E1,-9.821826816E-1,-1.807039022E0,7.144212723E-1
1.951837203E1,-1.389016509E0,-1.724892139E0,7.415647507E-1
1.952901203E1,-1.755457878E0,-1.655030012E0,6.021184921E-1
1.953836703E1,-1.957958698E0,-1.574518204E0,2.937870026E-1
1.954836003E1,-1.929318666E0,-1.492486000E0,-9.557247162E-2
1.955824703E1,-1.703530550E0,-1.379406214E0,-4.843263626E-1
1.956822303E1,-1.398304105E0,-1.252363920E0,-8.729820251E-1
1.957890503E1,-1.048781633E0,-1.140614033E0,-1.233808517E0
1.958823403E1,-6.979833245E-1,-1.030540228E0,-1.561926365E0
1.959822103E1,-4.268874824E-1,-9.314861298E-1,-1.841807842E0
1.960820403E1,-2.367069721E-1,-8.243975639E-1,-2.099200249E0
1.961822503E1,-1.254766583E-1,-6.966657639E-1,-2.306841373E0
1.962833803E1,-1.029907465E-1,-4.218149185E-1,-2.368735790E0
1.963821403E1,-1.463467777E-1,-2.911410332E-1,-2.219988346E0
1.964915403E1,-1.855751872E-1,-1.960153580E-1,-1.963943005E0
1.965824203E1,-1.806514561E-1,-1.239104271E-1,-1.634346485E0
1.966822303E1,-1.277982295E-1,-6.250262260E-2,-1.231211662E0
1.967871103E1,-2.412146330E-2,-4.443311691E-2,-7.662830353E-1
1.968825303E1,6.218141317E-2,1.192808151E-2,-2.505769730E-1
1.969823903E1,1.535238028E-1,6.618118286E-2,1.667490005E-1
1.970822703E1,2.374368906E-1,3.011250496E-2,4.948959351E-1
1.971819103E1,2.408190966E-1,4.526066780E-2,7.421751022E-1
1.972835903E1,1.375120282E-1,1.135380268E-1,8.799304962E-1
1.973838403E1,-8.568358421E-2,1.648142338E-1,1.084209442E0
1.974893503E1,-3.851040602E-1,2.576999664E-1,1.224279404E0
1.975827103E1,-6.045057774E-1,3.053736687E-1,1.305231094E0
1.976891503E1,-7.801102400E-1,3.858966827E-1,1.327179909E0
1.977824203E1,-8.694064617E-1,5.153763294E-1,1.388556480E0
1.979165203E1,-8.404740691E-1,5.749008656E-1,1.480834007E0
1.980821003E1,-7.193731070E-1,7.148051262E-1,1.412140846E0
1.981825603E1,-6.762509346E-1,8.245930672E-1,1.459318161E0
1.982835103E1,-6.227447987E-1,9.575712681E-1,1.530268669E0
1.983823603E1,-5.406649113E-1,1.083521843E0,1.714303970E0
1.984820903E1,-4.320893884E-1,1.207561493E0,1.972122192E0
1.985931903E1,-3.424816132E-1,1.360681534E0,2.275444031E0
1.986820403E1,-2.446598411E-1,1.544935226E0,2.518563271E0
1.987832203E1,-1.004892588E-1,1.632205725E0,2.746571541E0
1.988822603E1,1.030730009E-1,1.549089909E0,2.871856689E0
1.989828003E1,3.612446189E-1,1.294966698E0,2.832224846E0
1.990835503E1,6.063662767E-1,8.512463570E-1,2.678522110E0
1.991821203E1,7.325355411E-1,2.969202995E-1,2.439470291E0
1.992826903E1,5.213639736E-1,-8.480691910E-2,2.291527748E0
1.993819303E1,1.361532211E-1,-3.182520866E-1,2.213595390E0
1.994826503E1,-3.117336035E-1,-6.518931389E-1,2.223423958E0
1.995819903E1,-7.927219868E-1,-1.046040535E0,2.200951576E0
1.996820703E1,-1.341353178E0,-1.422684669E0,2.028222084E0
1.997824303E1,-1.920594215E0,-1.691049337E0,1.573004723E0
1.998833903E1,-2.353206158E0,-1.880596995E0,6.992435455E-1
1.999823103E1,-2.332931042E0,-2.145924807E0,1.060485840E-1
2.000824803E1,-2.278010130E0,-2.257089138E0,-3.606195450E-1
2.001820803E1,-2.289537907E0,-1.994707584E0,-1.066012859E0
2.002845803E1,-2.019538403E0,-1.802299738E0,-1.784566402E0
2.003838603E1,-1.432030439E0,-1.767199755E0,-2.236537457E0
2.004825503E1,-7.538886070E-1,-1.677664042E0,-2.422698021E0
2.005843603E1,-1.141629815E-1,-1.575217485E0,-2.256471634E0
2.006822503E1,4.419900179E-1,-1.505208492E0,-1.933455944E0
2.007819603E1,7.460237741E-1,-1.479392052E0,-1.613656998E0
2.008817903E1,7.736024857E-1,-1.514310360E0,-1.243490219E0
2.009819203E1,4.339644313E-1,-1.484909773E0,-8.386378288E-1
2.010841203E1,-9.937751293E-2,-1.445823193E0,-4.853258133E-1
2.011839303E1,-7.072520852E-1,-1.402585030E0,-2.819986343E-1
2.012847103E1,-1.392140627E0,-1.234578133E0,-1.653633118E-1
2.013838903E1,-1.881481647E0,-1.056951046E0,-9.696102142E-2
2.014830203E1,-2.061484575E0,-9.241142273E-1,-1.997871399E-1
2.015830403E1,-1.881613255E0,-8.263008595E-1,-7.138042450E-1
2.016981003E1,-1.176551104E0,-3.683838844E-1,-1.043786049E0
2.017834003E1,-7.801330090E-1,-1.696562767E-1,-1.422444344E0
2.018824603E1,-4.476937950E-1,-7.321238518E-2,-1.755897045E0
2.019879903E1,-2.057311088E-1,8.730888367E-3,-2.018039703E0
2.020828203E1,-5.335281789E-2,9.787702560E-2,-2.102820873E0
2.021884303E1,-2.251863480E-4,1.749701500E-1,-2.008990288E0
2.022832303E1,-1.168111488E-1,2.010421753E-1,-1.842741489E0
2.023823103E1,-4.021883309E-1,2.178974152E-1,-1.661497593E0
2.024825403E1,-6.971296072E-1,2.318925858E-1,-1.492405891E0
2.025820603E1,-8.600885868E-1,2.203631401E-1,-1.292424202E0
2.026823003E1,-9.462699890E-1,2.519655228E-1,-9.695549011E-1
2.027827503E1,-9.149911404E-1,3.015556335E-1,-5.734891891E-1
2.028888603E1,-7.747209668E-1,3.464550972E-1,-2.072916031E-1
2.029822803E1,-6.275064945E-1,4.229779243E-1,8.085441589E-2
2.030835203E1,-4.346418381E-1,5.066275597E-1,3.372058868E-1
2.031828203E1,-6.604030728E-2,3.907785416E-1,6.184568405E-1
2.032831103E1,2.225223780E-1,2.899932861E-1,8.307189941E-1
2.033888603E1,3.272856474E-1,2.839498520E-1,9.567852020E-1
2.034832803E1,3.108057976E-1,3.201799393E-1,1.071359634E0
2.035821503E1,2.292335629E-1,3.334622383E-1,1.158558846E0
2.036821103E1,1.352117509E-1,2.891626358E-1,1.210587502E0
2.037821703E1,-2.721051872E-2,2.659454346E-1,1.273723602E0
2.038832303E1,-1.795810610E-1,2.391219139E-1,1.439324379E0
2.039833903E1,-2.835848927E-1,1.970758438E-1,1.689218521E0
2.040823503E1,-3.068365455E-1,1.158857346E-1,2.056248665E0
2.041818603E1,-2.850003242E-1,2.806425095E-2,2.424071312E0
2.042848203E1,-2.517566383E-1,-6.500005722E-2,2.667021751E0
2.043825803E1,-3.132895827E-1,-8.668947220E-2,2.851067543E0
2.044826203E1,-5.274595022E-1,9.790134430E-2,2.925518036E0
2.045822603E1,-7.136321068E-1,3.780512810E-1,3.050585747E0
2.046821003E1,-6.952666044E-1,6.231141090E-1,3.198555946E0
2.047823803E1,-5.061439276E-1,7.601771355E-1,3.303196907E0
2.048827203E1,-2.636265159E-1,9.056067467E-1,3.465888023E0
2.049822103E1,9.717194736E-2,8.713531494E-1,3.646104813E0
2.050952303E1,6.411227584E-1,5.641760826E-1,3.819487572E0
2.051822903E1,1.087240458E0,1.022238731E-1,3.889115334E0
2.052900403E1,1.158994675E0,-3.546333313E-1,3.786017418E0
2.053820903E1,9.313156605E-1,-7.893211842E-1,3.511188507E0
2.054822103E1,3.567540348E-1,-1.220886469E0,3.115317345E0
2.055833003E1,-2.722735107E-1,-1.683218956E0,2.331075668E0
