"Time (s)","Linear Acceleration x (m/s^2)","Linear Acceleration y (m/s^2)","Linear Acceleration z (m/s^2)"
4.817819300E-2,-6.210756302E-2,-1.827335358E-1,-2.280149460E-1
6.442931800E-2,-2.179120779E-1,-1.908054352E-1,-2.885122299E-1
7.703088000E-2,-3.698152304E-1,-2.737259865E-1,-1.465921402E-1
8.835366100E-2,-1.827526093E-1,-1.072874069E-1,4.373645782E-1
9.903755200E-2,-6.412839890E-2,-7.461166382E-2,5.915198326E-1
1.093764970E-1,-1.935256720E-1,-1.853337288E-1,3.569855690E-1
1.195129700E-1,-2.238945961E-1,-1.780838966E-1,2.229375839E-1
1.295927060E-1,-2.252651453E-1,-2.063236237E-1,3.314228058E-1
1.396210740E-1,-2.656205893E-1,-1.986093521E-1,-7.004976273E-2
1.496652580E-1,-2.880667448E-1,-2.584018707E-1,-2.657980919E-1
1.597288500E-1,-3.420020342E-1,-2.318301201E-1,-3.092026711E-1
1.696861460E-1,-2.820128202E-1,-3.635354042E-1,-2.304973602E-1
1.796702940E-1,-3.531141281E-1,-3.051433563E-1,-1.156105995E-1
1.896568680E-1,-2.959628105E-1,-3.172531128E-1,1.227474213E-2
1.996556550E-1,-2.483134270E-1,-3.379960060E-1,-4.661083221E-2
2.096835490E-1,-2.880122662E-1,-2.703518867E-1,-7.117748260E-2
2.196764960E-1,-2.203377485E-1,-8.101892471E-2,5.741119385E-4
2.297364690E-1,-3.221310973E-1,-1.550879478E-1,-2.005720139E-1
2.397539560E-1,-2.704822421E-1,-1.611518860E-1,-4.334578514E-1
2.497266990E-1,-2.425089478E-1,-3.227443695E-1,-4.729328156E-1
2.597495710E-1,-2.045715451E-1,-2.323288918E-1,-3.891568184E-1
2.697170070E-1,-7.816934586E-2,-3.505525589E-1,-3.660345078E-1
2.797237250E-1,-2.180157304E-1,-3.328471184E-1,-4.005436897E-1
2.897490840E-1,-2.799935937E-1,-3.636016846E-1,-2.743945122E-1
2.997062630E-1,-2.590955496E-1,-3.179912567E-1,-1.011996269E-1
3.097233530E-1,-9.912961721E-2,-2.514481544E-1,-1.026916504E-2
3.197823980E-1,5.668449402E-2,-1.451964378E-1,3.623962402E-4
3.298349200E-1,2.439555526E-1,2.259907722E-1,-5.731010437E-2
3.398511810E-1,5.221724510E-1,3.828191757E-1,2.848806381E-1
3.497763120E-1,4.537711143E-1,3.984146118E-1,-1.713666916E-1
3.601313770E-1,2.740287781E-1,4.548583031E-1,-8.873748779E-1
3.698874100E-1,1.497161388E-1,4.265995026E-1,-1.119498730E0
3.798244260E-1,3.575379848E-1,2.845373154E-1,-7.389168739E-1
3.897334340E-1,5.580054522E-1,1.366701126E-1,-9.419584274E-2
3.996939380E-1,9.402751923E-1,6.915426254E-2,3.156671524E-1
4.097661900E-1,1.050159216E0,-5.364751816E-2,3.821787834E-1
4.197733160E-1,8.468763828E-1,-6.696844101E-2,4.285974503E-1
4.297238790E-1,5.854123831E-1,-1.436281204E-2,4.086656570E-1
4.397431610E-1,4.000951052E-1,-1.053524017E-2,5.917882919E-1
4.497703020E-1,1.437580585E-1,8.621263504E-2,6.446766853E-1
4.597548720E-1,-2.264131308E-1,2.666282654E-1,4.962387085E-1
4.697061570E-1,-1.041753292E0,1.154345036E0,-2.490339279E-1
4.797053000E-1,-6.540710926E-1,5.361723900E-1,-8.006415367E-1
4.897648710E-1,-2.405534983E-1,-1.877093315E-1,-1.208534241E0
4.997201570E-1,-1.225011349E-1,-2.847957611E-1,-1.257446766E0
5.096848000E-1,7.712924480E-2,-3.681888580E-1,-1.351668358E0
5.197516210E-1,8.144879341E-2,-3.379688263E-1,-1.383263588E0
5.297395320E-1,6.284332275E-2,-6.338791847E-1,-1.458773613E0
5.396984870E-1,-5.158181190E-1,-4.367051125E-1,-1.208552361E0
5.496794650E-1,-1.359646797E0,2.342424393E-1,-7.531886101E-1
5.621484540E-1,-1.205575228E0,-1.583976746E-1,-3.372368813E-1
5.796884430E-1,-6.907238960E-1,-4.719038010E-1,-1.664137840E-1
5.897184430E-1,-7.350869179E-1,-5.870475769E-1,-7.142019272E-2
5.996984430E-1,-1.646699905E-1,-1.024366379E0,-1.411194801E-1
6.097104430E-1,3.168108463E-1,-1.584874153E0,4.870767593E-1
6.199274430E-1,-3.936777115E-1,-8.263268471E-1,-1.062726974E-1
6.297114430E-1,-1.168992877E0,-3.514132500E-1,1.587805748E-1
6.397074430E-1,-1.358107567E0,-1.369504929E-1,1.620645523E-1
6.496574430E-1,-1.601422906E0,9.796524048E-2,3.521838188E-1
6.599434430E-1,-1.661267519E0,6.550025940E-2,7.381901741E-1
6.696604430E-1,-1.172395706E0,-1.804084778E-1,1.420290470E0
6.796874430E-1,-1.048113823E0,-2.397556305E-1,2.136510849E0
6.897124430E-1,-1.021834850E0,-2.170276642E-1,2.902647972E0
6.998024430E-1,-5.739030838E-1,-4.397540092E-1,2.659883022E0
7.099324430E-1,-1.027438641E-1,-5.804753304E-1,1.825762749E0
7.196474430E-1,8.474540710E-2,-3.728432655E-1,5.384249687E-1
7.296704430E-1,3.976736069E-1,2.412796021E-4,-6.333637238E-2
7.398034430E-1,1.041806221E0,2.621502876E-1,2.680468559E-1
7.497834430E-1,1.585587502E0,3.502831459E-1,7.345309258E-1
7.597124430E-1,1.675584316E0,2.328338623E-1,1.720783710E0
7.697204430E-1,1.416889191E0,-2.049331665E-1,2.571418285E0
7.797024430E-1,9.355211258E-1,-1.124142170E0,3.130813599E0
7.896794430E-1,7.151575089E-1,-2.366320610E0,2.497451305E0
7.997144430E-1,6.858224869E-1,-2.903051853E0,1.673395634E0
8.096984430E-1,1.146500111E0,-1.885441065E0,-1.199874878E0
8.202724430E-1,1.335817337E0,-2.972774506E-1,-2.988074541E0
8.297244430E-1,1.156812668E0,8.309240341E-1,-3.133520603E0
8.397154430E-1,1.521900177E0,1.375749111E0,-3.770395756E0
8.497564430E-1,1.762929916E0,8.912506104E-1,-3.805948257E0
8.597934430E-1,1.934068203E0,-1.595005989E-1,-3.344731331E0
8.707964430E-1,2.023890495E0,-2.169911385E0,-1.811671495E0
8.797324430E-1,2.023309231E0,-2.388963699E0,-1.161315441E0
8.897154430E-1,1.665743351E0,-2.478127003E0,-2.898015976E-1
8.997164430E-1,1.203284740E0,-2.628703594E0,3.773100376E-1
9.097514430E-1,1.013810635E0,-2.902567148E0,6.437547207E-1
9.201634430E-1,9.442710876E-1,-2.911567688E0,3.895711899E-2
9.297064430E-1,8.877649307E-1,-2.369359732E0,-1.256919622E0
9.397644430E-1,7.191886902E-1,-1.937630892E0,-1.823925376E0
9.519124430E-1,6.679267883E-1,-1.894248486E0,-2.152640820E0
9.696554430E-1,1.101895332E0,-2.316752434E0,-1.836808324E0
9.858084430E-1,9.335765839E-1,-2.458827019E0,-9.646515846E-1
9.997684430E-1,2.311534882E-1,-3.130315304E0,5.419921875E-2
1.009695443E0,-9.374904633E-2,-3.473820686E0,-2.432930470E-1
1.019669443E0,-2.357988358E-1,-3.477688551E0,-3.473277092E-1
1.033809443E0,-5.466966629E-1,-2.673088312E0,-4.606356621E-1
1.049680443E0,-2.832078934E-1,-1.822452307E0,-9.046380520E-1
1.059761443E0,1.609840393E-1,-1.806725502E0,-1.545609355E0
1.070433443E0,1.963596344E-1,-1.661841393E0,-1.602236748E0
1.079728443E0,-3.371372223E-1,-1.479591727E0,-1.552119851E0
1.089668443E0,-9.134244919E-1,-1.477539062E0,-7.984144688E-1
1.100931443E0,-1.538133144E0,-1.900083065E0,-1.198348999E-1
1.114423443E0,-2.212093353E0,-2.336514473E0,1.071570396E0
1.129688443E0,-4.477354050E0,-4.039080620E0,1.192181110E0
1.139682443E0,-2.752371788E0,-2.779800892E0,1.280433893E0
1.149687443E0,-1.295444012E0,-2.146734715E0,2.149172306E0
1.159783443E0,-3.240909576E-1,-1.937112331E0,1.501895905E0
1.169717443E0,4.000759125E-1,-1.690321088E0,3.743548393E-1
1.179829443E0,5.206708908E-1,-1.339665413E0,-1.893434525E-1
1.189789443E0,-2.166309357E-1,-8.627684116E-1,-2.326893806E-1
1.199685443E0,-1.669477463E0,-1.073420644E0,-5.738801956E-1
1.209698443E0,-2.363875389E0,-1.831737876E0,-5.377740860E-1
1.219695443E0,-2.554175377E0,-2.306572914E0,-2.305042744E-1
1.229687443E0,-2.561568737E0,-2.266111374E0,1.488828659E-1
1.239674443E0,-2.277290344E0,-2.342841625E0,8.300282955E-1
1.250454443E0,-2.089829445E0,-2.935343266E0,1.402460337E0
1.259666443E0,-1.795190334E0,-2.905707359E0,1.736063480E0
1.269696443E0,-1.951712608E0,-2.747222900E0,1.951183677E0
1.279629443E0,-1.798362732E0,-2.998222589E0,1.061944723E0
1.289705443E0,-1.156205177E0,-3.238993168E0,2.132359147E-1
1.300341443E0,-9.292402267E-1,-3.235082626E0,1.119002998E-1
1.309873443E0,-7.859525681E-1,-2.893705130E0,-3.009042740E-1
1.319716443E0,-1.180755615E0,-2.160499096E0,-2.982002795E-1
1.329698443E0,-1.310864449E0,-1.485127449E0,-5.455273390E-1
1.339721443E0,-1.149053574E0,-1.354636192E0,-6.336217523E-1
1.350483443E0,-1.175175667E0,-1.717683315E0,-8.415601254E-1
1.359711443E0,-1.033356667E0,-2.241799116E0,-1.579048514E0
1.370707443E0,-4.415292740E-1,-2.716372728E0,-3.179255128E-1
1.379674443E0,-4.100284576E-1,-2.468684196E0,-2.640706301E-1
1.389743443E0,6.315708160E-2,-2.645180225E0,-2.341699600E-1
1.399710443E0,1.768426895E-1,-3.143828869E0,5.670680404E-1
1.409715443E0,1.891218185E0,-2.560570717E0,-1.337575436E0
1.419883443E0,1.708982468E0,-2.837610245E0,-1.722015500E0
1.429695443E0,1.923278809E0,-3.127632856E0,-1.543449402E0
1.439998443E0,1.775074959E0,-3.001751900E0,-5.248475075E-1
1.449701443E0,1.713848114E0,-3.029720306E0,-5.258475542E-1
1.459818443E0,2.263933182E0,-2.885998726E0,-1.368850946E0
1.469706443E0,2.564255714E0,-2.417402029E0,-1.858380318E0
1.479808443E0,3.433597565E0,-1.619169474E0,-2.386234999E0
1.489699443E0,5.091300011E0,-7.100744247E-1,-3.021565437E0
1.499842443E0,6.183225632E0,-1.862597466E-2,-3.699217319E0
1.509703443E0,7.432324409E0,5.212454796E-1,-4.707386971E0
1.519741443E0,8.197850227E0,8.566939831E-1,-4.916967392E0
1.529700443E0,8.152693748E0,3.748908043E-1,-4.021008015E0
1.539691443E0,8.254228592E0,1.023197174E-2,-1.353087425E0
1.549717443E0,7.991485596E0,-1.269516945E-1,-1.989895105E-1
1.560164443E0,7.206427574E0,3.886733055E-1,-1.084720612E0
1.569697443E0,5.791954994E0,1.228258371E0,-9.198561907E-1
1.579730443E0,4.411846161E0,1.878672123E0,-8.349943161E-1
1.589873443E0,3.148709297E0,2.131881952E0,-9.197943211E-1
1.599671443E0,2.140412331E0,2.424970627E0,-1.183233500E0
1.610865443E0,1.487786293E0,2.421060085E0,-1.039430618E0
1.619649443E0,9.677410126E-1,2.167376041E0,-3.412525654E-1
1.629630443E0,5.477371216E-1,1.945704460E0,9.674882889E-2
1.639694443E0,1.172962189E-1,1.745163441E0,1.611088514E-1
1.649700443E0,-2.124490738E-1,1.568300962E0,4.503169060E-1
1.661238443E0,-3.795585632E-1,1.420634985E0,2.298135161E-1
1.673543443E0,-5.353326797E-1,1.266616821E0,4.315062761E-1
1.690189443E0,-1.259078026E0,1.186314821E0,1.169477582E0
1.700514443E0,-1.608534813E0,1.003789663E0,1.512432337E0
1.709905443E0,-1.689290524E0,7.410063744E-1,1.474088907E0
1.719739443E0,-1.787138462E0,5.799653530E-1,1.201968670E0
1.730604443E0,-1.616917133E0,4.729621410E-1,8.939052820E-1
1.740282443E0,-9.380655289E-1,4.984896183E-1,1.073637605E-1
1.749761443E0,-4.101533890E-1,6.389596462E-1,-7.642934322E-1
1.759853443E0,3.488159180E-2,4.840908051E-1,-8.339250088E-1
1.769703443E0,-1.409530640E-2,1.915154457E-1,-2.409077883E-1
1.779902443E0,-5.296192169E-1,8.903145790E-2,6.267833710E-1
1.789798443E0,-1.319151402E0,3.625590801E-1,1.410682797E0
1.800271443E0,-2.203219414E0,1.331701279E-1,3.126948357E0
1.809865443E0,-2.949941635E0,7.340391874E-1,2.270198822E0
1.819772443E0,-2.920128345E0,6.102145910E-1,1.938649178E0
1.830861443E0,-2.382150650E0,3.937747478E-1,2.022963047E0
1.840184443E0,-2.530515671E0,5.338191986E-3,1.719466448E0
1.853318443E0,-2.821357727E0,4.195089340E-1,-7.017822266E-1
1.869699443E0,-2.903821945E0,7.561075687E-2,-1.055727243E0
1.879723443E0,-2.793091297E0,-7.248884439E-1,-8.107190132E-1
1.889781443E0,-2.653460503E0,-4.073190689E-1,-4.563415051E-1
1.899725443E0,-2.864449024E0,6.703281999E-1,8.813012242E-1
1.910416443E0,-2.692638874E0,-5.658099651E-1,5.559207201E-1
1.919749443E0,-2.704753399E0,-6.657307148E-1,5.669722557E-1
1.935150443E0,-2.031566620E0,-5.770485401E-1,-3.532027006E-1
1.949739443E0,-1.600778580E0,-4.993686676E-1,-8.535234928E-1
1.959769443E0,-6.701736450E-1,-1.035529375E0,-1.200501680E0
1.969768443E0,-6.895065308E-3,-8.882710338E-1,-1.141372561E0
1.979762443E0,-1.953401566E-1,1.494097710E-2,-8.748404980E-1
1.989744443E0,-8.808927536E-1,5.471913815E-1,-1.485221744E0
1.999713443E0,1.570377350E-1,-3.904895782E-1,-2.302103758E0
2.012007443E0,-3.908443451E-1,-7.746270895E-1,-1.637457490E0
2.025265443E0,-9.593095779E-1,-5.337544680E-1,-7.936123610E-1
2.039675443E0,-1.266905785E0,-5.483216047E-1,-4.884802103E-1
2.049621443E0,-9.060716629E-1,-1.115486860E0,-3.584516048E-1
2.059769443E0,6.094617844E-1,-2.705060482E0,-6.885532141E-1
2.069707443E0,8.143873215E-1,-2.913095474E0,-2.311830521E-1
2.080000443E0,4.841842651E0,-4.238979340E0,1.029533625E0
2.089740443E0,5.137453079E0,-4.780766010E0,1.948226690E0
2.099872443E0,5.387338638E0,-4.320927620E0,2.882645607E0
2.109746443E0,5.142951965E0,-3.371060133E0,3.405999184E0
2.119731443E0,4.485972404E0,-1.974422097E0,3.014131546E0
2.129618443E0,4.195146561E0,-1.008119941E0,2.287991047E0
2.139695443E0,4.198063850E0,-4.332466125E-1,1.601031780E0
2.150593443E0,4.288745880E0,-5.934071541E-2,9.821019769E-1
2.159695443E0,4.431407928E0,1.212403774E-1,4.022779465E-1
2.169890443E0,4.696210861E0,-1.625680923E-2,7.247960567E-2
2.179712443E0,4.988696098E0,-6.048243046E-1,-1.719150543E-1
2.189839443E0,5.061120987E0,-1.575328469E0,-8.171275854E-1
2.199945443E0,4.437485695E0,-2.482491016E0,-1.265474081E0
2.209911443E0,3.067272186E0,-3.452080250E0,-8.964105844E-1
2.219803443E0,1.366038322E0,-3.866882086E0,1.049432755E-1
2.229723443E0,-5.052022934E-1,-3.866632938E0,1.573098063E0
2.239700443E0,-2.251307487E0,-3.531084538E0,2.990334988E0
2.249699443E0,-3.672578335E0,-3.103199005E0,3.786404133E0
2.259787443E0,-4.556216240E0,-2.779464722E0,3.892489672E0
2.272036443E0,-4.954439163E0,-2.528664827E0,3.490739107E0
2.289680443E0,-4.519957542E0,-2.570452690E0,1.672856688E0
2.300500443E0,-4.002846241E0,-2.574035645E0,1.129933953E0
2.309706443E0,-3.371693611E0,-2.412600279E0,6.737894416E-1
2.319793443E0,-3.022667885E0,-1.944530249E0,3.001619577E-1
2.329693443E0,-3.075478554E0,-1.430199623E0,-2.485042810E-1
2.339784443E0,-3.128940582E0,-1.316041470E0,-1.044335365E0
2.349728443E0,-3.325653553E0,-1.347170115E0,-1.213536501E0
2.359780443E0,-3.128275871E0,-1.345282316E0,-6.469645500E-1
2.370730443E0,-2.694510460E0,-1.271120787E0,5.598311424E-1
2.379712443E0,-2.234463692E0,-1.050420046E0,1.627383232E0
2.390175443E0,-1.722977161E0,-9.094657898E-1,2.187873602E0
2.399792443E0,-1.264057159E0,-7.457611561E-1,2.222016096E0
2.409712443E0,-6.935586929E-1,-7.509531975E-1,1.960330367E0
2.420344443E0,-6.908378601E-1,-5.931141376E-1,1.864763975E0
2.429768443E0,-1.201024055E0,-1.250045300E-1,1.594084740E0
2.439774443E0,-2.036621571E0,3.244466782E-1,1.123849869E0
2.449679443E0,-2.563604832E0,5.235996246E-1,8.551806211E-1
2.459714443E0,-2.795487881E0,6.284046173E-1,7.677543163E-1
2.469689443E0,-2.776932716E0,6.540648937E-1,8.132225275E-1
2.480570443E0,-2.205914974E0,3.879241943E-1,9.351596832E-1
2.489797443E0,-1.955093861E0,7.479119301E-1,1.566640258E0
2.499786443E0,-2.443120956E0,2.442478180E0,2.951982975E0
2.510539443E0,-2.437694550E0,2.839810848E0,2.617103815E0
2.519765443E0,-2.464860916E0,2.657717943E0,1.771065235E0
2.529650443E0,-2.772330761E0,2.109722614E0,6.650257111E-1
2.540132443E0,-3.017583847E0,1.580508113E0,-7.295131683E-1
2.549621443E0,-3.130007744E0,1.224790573E0,-1.735390663E0
2.559921443E0,-3.158168793E0,8.681206703E-1,-2.323651314E0
2.569819443E0,-2.924299717E0,4.208941460E-1,-2.380943537E0
2.579667443E0,-2.403832912E0,-1.431422234E-1,-2.027062416E0
2.589842443E0,-1.601713181E0,-7.937326431E-1,-1.743035555E0
2.599690443E0,-6.533818245E-1,-1.253734112E0,-1.463634729E0
2.610478443E0,3.083333969E-1,-1.459171295E0,-1.127142429E0
2.619760443E0,7.722368240E-1,-1.383219242E0,-9.135551453E-1
2.629632443E0,9.631409645E-1,-1.337128639E0,-5.736789703E-1
2.639834443E0,8.072209358E-1,-1.255954266E0,-3.159692287E-1
2.649815443E0,4.864926338E-1,-1.219995499E0,-2.153110504E-1
2.659734443E0,-6.561613083E-2,-1.128829002E0,-1.586754322E-1
2.669732443E0,-7.020940781E-1,-9.126963615E-1,2.493033409E-1
2.679905443E0,-1.008116722E0,-9.337410927E-1,5.115097761E-1
2.689736443E0,-1.157949448E0,-1.059379101E0,4.495558739E-1
2.699625443E0,-9.542412758E-1,-1.134187698E0,-2.061920166E-1
2.709781443E0,-5.920786858E-1,-1.354529858E0,-1.833822966E0
2.719741443E0,2.005438805E-1,-1.475699902E0,-3.290359259E0
2.729624443E0,8.870086670E-1,-1.558755875E0,-5.227053642E0
2.739652443E0,8.503074646E-1,-1.793481350E0,-6.678835869E0
2.750442443E0,-3.399963379E-1,-3.691020012E-1,-7.260475159E0
2.760135443E0,-2.085908890E0,1.431156158E0,-5.296225071E0
2.769751443E0,-3.261990547E0,2.385924816E0,-2.995615721E0
2.779655443E0,-3.444568157E0,2.429146767E0,-9.617161751E-1
2.789835443E0,-4.112045288E0,3.330142021E0,5.329763889E-1
2.799831443E0,-3.964196205E0,3.104676247E0,1.119543552E0
2.809690443E0,-3.210477352E0,2.039152145E0,1.535042286E0
2.819723443E0,-2.823667526E-1,-1.492064476E0,1.338084698E0
2.829623443E0,1.883411407E0,-6.067063332E0,-1.896638870E-1
2.839685443E0,2.172977924E0,-1.160023212E1,-1.914218068E0
2.850089443E0,1.439303398E0,-1.821722794E1,-1.003739238E0
2.859681443E0,-2.013964176E0,-1.810994339E1,5.696855783E-1
2.870520443E0,-5.779870510E0,-1.501802444E1,4.415951967E-1
2.879691443E0,-8.006845474E0,-1.163537693E1,-9.966121912E-1
2.889683443E0,-6.783003807E0,-6.039239883E0,-1.729238033E-1
2.899608443E0,-4.846833706E0,-2.031312943E0,1.340536594E0
2.909665443E0,-4.083000183E0,-4.032192230E-1,3.231932640E0
2.920192443E0,-4.179872513E0,4.894523621E-1,4.741717339E0
2.929935443E0,-4.365426064E0,1.218088627E0,4.926506519E0
2.939711443E0,-4.792584896E0,1.682394028E0,4.635325909E0
2.949651443E0,-4.500270844E0,1.338296413E0,4.335741043E0
2.960418443E0,-4.014823914E0,5.281810760E-1,4.263257504E0
2.969732443E0,-3.410237074E0,-2.018232346E-1,3.785632610E0
2.979715443E0,-2.857740164E0,-6.490087509E-1,3.224924326E0
2.989707443E0,-2.424538612E0,-9.054517746E-1,3.120440245E0
2.999642443E0,-2.011787891E0,-7.913789749E-1,3.064064503E0
3.009775443E0,-1.711334944E0,-5.859651566E-1,3.322047234E0
3.019711443E0,-1.818486452E0,-1.924514771E-2,3.403841734E0
3.029719443E0,-2.059567451E0,4.506483078E-1,3.354209900E0
3.039777443E0,-2.361173153E0,1.004539490E0,3.535427570E0
3.050430443E0,-2.583581924E0,1.507085800E0,4.089230061E0
3.059667443E0,-2.718980789E0,1.977294445E0,3.994766951E0
3.069743443E0,-2.622143984E0,2.170741081E0,3.846529484E0
3.079648443E0,-2.470998764E0,2.247384548E0,3.738653421E0
3.089954443E0,-2.200416327E0,2.319519997E0,3.341324091E0
3.099687443E0,-2.009858370E0,2.238455296E0,2.800374985E0
3.109678443E0,-1.865837574E0,1.889718056E0,2.429439068E0
3.119705443E0,-1.645566225E0,1.411349297E0,2.087872982E0
3.129905443E0,-1.428459883E0,9.992408752E-1,1.814246178E0
3.139673443E0,-1.299243212E0,6.735095978E-1,1.618950367E0
3.149615443E0,-1.298419237E0,3.300018311E-1,1.546280146E0
3.159787443E0,-1.518636465E0,-9.589672089E-2,1.260126948E0
3.169896443E0,-1.626678228E0,-4.641256332E-1,9.164900780E-1
3.179685443E0,-1.503702641E0,-7.841663361E-1,8.022820950E-1
3.189701443E0,-1.287379742E0,-9.244289398E-1,5.878629684E-1
3.199774443E0,-9.732582569E-1,-1.082653999E0,3.318132162E-1
3.209747443E0,-3.709039688E-1,-1.170151711E0,5.012877584E-1
3.219757443E0,5.241956711E-1,-1.502432823E0,6.740332842E-1
3.229673443E0,8.412907124E-1,-2.111017227E0,2.841366529E-1
3.239726443E0,1.024139166E0,-2.198923111E0,-6.640799642E-1
3.249658443E0,1.245111704E0,-2.166362762E0,-1.309139013E0
3.259708443E0,1.511218786E0,-2.485229492E0,-1.964955091E0
3.270774443E0,1.918360949E0,-3.044277191E0,-2.211818695E0
3.279690443E0,2.445059061E0,-3.618083000E0,-2.910365343E0
3.289810443E0,2.795314074E0,-3.853151321E0,-3.603917122E0
3.299705443E0,3.613854170E0,-4.183498383E0,-4.904762745E0
3.309716443E0,4.098705292E0,-4.360013962E0,-7.460696697E0
3.320074443E0,4.295350075E0,-3.682204247E0,-8.860759735E0
3.329658443E0,4.349139214E0,-3.018506050E0,-9.364256859E0
3.339753443E0,4.090583801E0,-3.092773438E0,-8.309790611E0
3.349779443E0,3.059101820E0,-3.864770889E0,-4.887821198E0
3.359673443E0,2.943572760E0,-4.506683350E0,-2.022256374E0
3.369779443E0,2.931563139E0,-4.243574142E0,-3.686082959E-1
3.379733443E0,1.972699404E0,-3.012377739E0,5.149714351E-1
3.390566443E0,1.165457964E0,-1.230937004E0,1.065558910E0
3.399626443E0,2.186281681E-1,-1.799135208E-1,5.657780170E-1
3.409726443E0,-2.956297398E-1,1.939458847E-1,1.423076987E0
3.419727443E0,-6.147475243E-1,7.567195892E-1,1.784654140E0
3.429773443E0,-7.869579792E-1,8.923377991E-1,1.692673683E0
3.440015443E0,-9.825377464E-1,8.584251404E-1,1.605367780E0
3.449628443E0,-1.203212500E0,6.838703156E-1,1.634502172E0
3.460175443E0,-1.510487795E0,4.769363403E-1,1.583025575E0
3.469704443E0,-1.873206496E0,2.346343994E-1,1.459772110E0
3.479696443E0,-2.276873827E0,-1.989555359E-2,1.316934347E0
3.490381443E0,-2.692150593E0,-2.595539093E-1,1.158201456E0
3.499717443E0,-3.073696136E0,-4.385128021E-1,1.023934603E0
3.510203443E0,-3.453872442E0,-5.003118515E-1,8.968804479E-1
3.519741443E0,-3.857225895E0,-4.297075272E-1,8.222819567E-1
3.529684443E0,-4.276815414E0,-1.618309021E-1,8.775351048E-1
3.539815443E0,-4.694974422E0,2.196245193E-1,1.072885871E0
3.549718443E0,-5.179090500E0,1.172187805E0,1.158959627E0
3.560160443E0,-5.330953598E0,1.641046047E0,1.212947845E0
3.569772443E0,-5.486779213E0,2.093639851E0,1.466785312E0
3.579713443E0,-5.692957878E0,2.349322319E0,1.620710254E0
3.589772443E0,-5.662748814E0,2.447060108E0,1.608085155E0
3.599694443E0,-5.619003296E0,2.471107483E0,1.670267224E0
3.609865443E0,-5.497884750E0,2.344215870E0,1.795109391E0
3.619746443E0,-5.185390949E0,2.124496460E0,1.878769159E0
3.630617443E0,-4.835140228E0,1.916374683E0,2.012679100E0
3.640853443E0,-4.631864071E0,1.677762032E0,2.091916084E0
3.649677443E0,-4.523715496E0,1.430605412E0,2.058285236E0
3.659773443E0,-4.321418285E0,1.134350777E0,1.995375872E0
3.669740443E0,-4.045534134E0,8.041157722E-1,1.851528645E0
3.680323443E0,-3.791271448E0,4.738626480E-1,1.747941971E0
3.689703443E0,-3.423045397E0,1.741628647E-1,1.654685020E0
3.699629443E0,-2.956123114E0,2.625083923E-2,1.679670453E0
3.711529443E0,-2.221418858E0,6.839656830E-2,2.319456100E0
3.719718443E0,-2.326290131E0,-1.364831924E-1,8.885661960E-1
3.729670443E0,-2.000570536E0,-8.520507812E-2,5.431144238E-1
3.739788443E0,-1.621089458E0,3.091430664E-2,8.531635404E-1
3.749691443E0,-1.116783857E0,1.307773590E-1,6.939443946E-1
3.760109443E0,-2.658078671E-1,1.421852112E-1,4.362403154E-1
3.769684443E0,4.738113880E-1,-1.875581741E-1,-7.514142990E-2
3.779701443E0,9.687337875E-1,-3.426837921E-1,-1.145035028E0
3.789778443E0,1.359798431E0,-5.963420868E-1,-1.582375526E0
3.799892443E0,2.049703836E0,-8.815746307E-1,-3.679294109E0
3.809670443E0,2.783607006E0,-1.050715446E0,-6.419429302E0
3.819774443E0,3.345062256E0,-1.184456825E0,-8.355246544E0
3.829789443E0,3.981438160E0,-1.398771286E0,-9.481069565E0
3.839689443E0,2.807645559E0,-1.110249519E0,-9.241396904E0
3.849694443E0,2.016268253E0,-5.902318954E-1,-9.170423508E0
3.859642443E0,2.231820583E0,-1.001291275E-1,-9.369240761E0
3.869664443E0,3.549620628E0,-9.766921997E-1,-8.887989998E0
3.879754443E0,3.203413486E0,-1.320434570E0,-7.422547340E0
3.889766443E0,1.366651058E0,-1.388121605E0,-4.715513706E0
3.899667443E0,2.835321426E-2,-2.197287560E0,-1.649929285E0
3.909692443E0,-3.876934052E-1,-3.491032600E0,7.082699537E-1
3.919709443E0,-3.115596771E-1,-4.808106422E0,1.759077787E0
3.929820443E0,-5.922727585E-1,-6.030312538E0,2.439512730E0
3.939794443E0,-1.227981806E0,-7.561721802E0,2.833113194E0
3.949828443E0,-1.283326149E0,-8.051111221E0,3.530962944E0
3.959833443E0,-1.470946312E0,-7.325719833E0,4.037782669E0
3.969990443E0,-2.226311445E0,-5.502217293E0,4.009299278E0
3.979692443E0,-3.053900719E0,-3.172627449E0,3.575093746E0
3.990089443E0,-3.440935135E0,-1.252961159E0,2.724792719E0
3.999828443E0,-3.344974995E0,1.029901505E-1,1.988600731E0
4.009683443E0,-3.248527050E0,9.308099747E-1,1.435293555E0
4.019966443E0,-3.646638155E0,1.449452400E0,8.600403666E-1
4.029695443E0,-3.958784342E0,1.348266125E0,4.755220115E-1
4.041027443E0,-3.168870926E0,-8.155508041E-1,2.595756650E-1
4.049666443E0,-3.179738998E0,-8.261165619E-1,3.361567855E-1
4.059637443E0,-2.597545147E0,-1.849533081E0,7.532634735E-1
4.069683443E0,-2.385049820E0,-2.436266899E0,1.259599686E0
4.079725443E0,-2.380838633E0,-2.653123856E0,2.359103441E0
4.089685443E0,-2.794628620E0,-2.056972504E0,2.430335045E0
4.099703443E0,-3.000802279E0,-1.440035820E0,2.102120876E0
4.110654443E0,-3.022877216E0,-8.642253876E-1,1.752598882E0
4.119753443E0,-3.033855915E0,-2.528562546E-1,1.611658335E0
4.129692443E0,-2.993472099E0,2.491025925E-1,1.419513702E0
4.139689443E0,-2.936465502E0,6.340470314E-1,1.410266638E0
4.149746443E0,-2.956363440E0,1.010129452E0,1.444231987E0
4.159799443E0,-3.162692547E0,1.399927616E0,1.337265730E0
4.169819443E0,-3.397799969E0,1.702392101E0,1.163882494E0
4.179716443E0,-3.577380896E0,1.915754795E0,9.704098105E-1
4.189702443E0,-3.644371033E0,2.154643536E0,8.215735555E-1
4.199720443E0,-3.662015915E0,2.370722294E0,7.875397801E-1
4.209694443E0,-3.610850334E0,2.534841061E0,7.557716370E-1
4.222545443E0,-3.521925449E0,2.596175671E0,7.144844532E-1
4.239713443E0,-3.231173038E0,2.537909031E0,7.691454887E-1
4.249743443E0,-3.053575516E0,2.334609032E0,7.790946364E-1
4.259728443E0,-2.781553984E0,1.974054813E0,8.045622706E-1
4.269980443E0,-2.499512434E0,1.573251247E0,8.325193524E-1
4.280360443E0,-2.235064030E0,1.219011784E0,8.560270667E-1
4.289803443E0,-1.918717861E0,9.116826057E-1,8.968605995E-1
4.299663443E0,-1.592926979E0,6.226406097E-1,9.861369729E-1
4.309943443E0,-1.209879398E0,3.459606171E-1,1.074360609E0
4.319717443E0,-7.964627743E-1,9.587287903E-2,1.175758123E0
4.329646443E0,-3.885264397E-1,-1.308431625E-1,1.283122540E0
4.339764443E0,-5.011940002E-2,-2.795619965E-1,1.348069429E0
4.349750443E0,3.120932579E-1,-4.167566299E-1,1.336564302E0
4.359896443E0,6.764516830E-1,-5.702562332E-1,1.247457981E0
4.371451443E0,1.038499832E0,-7.275371552E-1,9.925310612E-1
4.379709443E0,1.299637318E0,-8.190917969E-1,6.951116323E-1
4.389713443E0,1.473074913E0,-8.328523636E-1,2.555547357E-1
4.399769443E0,1.661217213E0,-9.204053879E-1,-2.379845977E-1
4.409677443E0,1.952154160E0,-1.137162209E0,-6.663970947E-1
4.419723443E0,2.280760765E0,-1.404234886E0,-1.117014408E0
4.429638443E0,2.657798767E0,-1.668464661E0,-1.635347962E0
4.439873443E0,3.170273304E0,-1.918850899E0,-2.370846987E0
4.449732443E0,3.958914757E0,-2.390990257E0,-3.122381687E0
4.459689443E0,4.773466587E0,-2.916296959E0,-3.802750349E0
4.469846443E0,5.619338036E0,-3.538113594E0,-4.796507359E0
4.479638443E0,5.954968452E0,-3.982314110E0,-6.455912113E0
4.489702443E0,5.674570084E0,-4.073472023E0,-7.140110493E0
4.499919443E0,4.521288872E0,-3.516500473E0,-6.896749496E0
4.509650443E0,4.408976555E0,-3.504254341E0,-6.590648651E0
4.519872443E0,5.084975243E0,-4.757498741E0,-5.403102875E0
4.529755443E0,4.699007511E0,-5.127283096E0,-2.992037773E0
4.539697443E0,2.918703079E0,-3.759675026E0,-9.110515714E-1
4.549654443E0,1.297251225E0,-2.143787384E0,-3.027063608E-2
4.559709443E0,2.708868980E-1,-9.232435226E-1,1.815261990E-1
4.569963443E0,-4.264261723E-1,8.326053619E-2,4.359305799E-1
4.579784443E0,-9.247360229E-1,8.465695381E-1,6.380758286E-1
4.589669443E0,-1.483682871E0,1.451431274E0,7.397240996E-1
4.599668443E0,-1.916199446E0,1.861530781E0,7.650795579E-1
4.610715443E0,-2.334107637E0,1.524959087E0,7.014204264E-1
4.619732443E0,-2.377882004E0,7.844510078E-1,5.821154714E-1
4.629701443E0,-2.574162006E0,-2.081537247E-1,4.849392772E-1
4.639698443E0,-2.982181549E0,-1.328946114E0,3.633364439E-1
4.649797443E0,-3.835657597E0,-2.437882423E0,1.878343821E-1
4.659676443E0,-4.887438774E0,-3.364613533E0,1.428806782E-2
4.670268443E0,-5.588552952E0,-3.987040520E0,-1.281974316E-1
4.679679443E0,-5.842414379E0,-4.100318909E0,3.993488550E-1
4.689695443E0,-5.988937378E0,-3.586139679E0,1.069873810E0
4.699685443E0,-5.978812695E0,-2.591418266E0,1.528220892E0
4.709684443E0,-5.636622429E0,-1.386417389E0,1.842037797E0
4.719800443E0,-5.277799129E0,-1.529455185E-1,2.233256340E0
4.730541443E0,-5.102116108E0,9.970660210E-1,2.481856585E0
4.739704443E0,-5.121906757E0,1.945416451E0,2.453398705E0
4.750373443E0,-5.231561661E0,2.689413548E0,2.485349655E0
4.759651443E0,-5.330657005E0,3.133383274E0,2.571643353E0
4.769858443E0,-5.616590977E0,3.529116154E0,2.453725338E0
4.779717443E0,-5.720351219E0,3.675003052E0,2.372349977E0
4.790059443E0,-5.648573399E0,3.646166325E0,2.211689949E0
4.799664443E0,-5.503309727E0,3.493190765E0,1.921137691E0
4.809981443E0,-5.283998489E0,3.271004200E0,1.765686989E0
4.819797443E0,-4.922297478E0,2.895787239E0,1.707720399E0
4.829794443E0,-4.528258324E0,2.455908775E0,1.773517728E0
4.839706443E0,-4.051729202E0,2.138085842E0,2.008665562E0
4.849672443E0,-3.609405041E0,1.913621902E0,2.164168835E0
4.859713443E0,-3.144877434E0,1.643860817E0,2.110839605E0
4.869687443E0,-2.766728640E0,1.368089676E0,1.950094819E0
4.879638443E0,-2.508883715E0,1.057062626E0,1.822148800E0
4.889928443E0,-2.202610254E0,5.767545700E-1,1.871945381E0
4.899663443E0,-1.608041763E0,6.867218018E-2,1.375277162E0
4.909678443E0,-1.325981855E0,-3.765983582E-1,1.649769783E0
4.920122443E0,-7.574715614E-1,-1.083324432E0,1.911409378E0
4.929850443E0,-1.765313148E-1,-1.390521049E0,1.076028347E0
4.939695443E0,4.726791382E-2,-1.517328262E0,1.508657455E0
4.949750443E0,8.084912300E-1,-1.929736137E0,2.020672321E0
4.959653443E0,2.274744034E0,-2.358633995E0,2.101177931E0
4.969737443E0,3.936008930E0,-2.536816597E0,-7.546013594E-1
4.979697443E0,4.879241943E0,-2.661304474E0,-4.519420624E0
4.989665443E0,4.973191738E0,-2.697189331E0,-8.645149231E0
4.999651443E0,4.604332447E0,-2.830954552E0,-1.142078018E1
5.009797443E0,3.574962139E0,-2.150829315E0,-1.546962070E1
5.020358443E0,1.095106602E0,-5.201911926E-2,-1.723122406E1
5.029803443E0,1.019510746E0,7.978754044E-1,-1.387294579E1
5.039765443E0,1.783809662E0,4.870615005E-1,-9.245183945E0
5.049754443E0,1.622260571E0,2.505035400E-1,-5.987523079E0
5.059733443E0,8.884468079E-1,-3.258132935E-1,-3.402184248E0
5.069705443E0,1.749157906E-1,-1.481272697E0,-1.141638994E0
5.079694443E0,3.402194977E-1,-2.895666122E0,1.044808984E0
5.090060443E0,2.295904160E-1,-4.357855797E0,2.390581131E0
5.099658443E0,2.181715965E-1,-6.008262634E0,3.132952213E0
5.109692443E0,1.302633286E-1,-7.581835747E0,3.441802263E0
5.119677443E0,2.167620659E-1,-8.137006760E0,3.840310097E0
5.129760443E0,-2.035503387E-1,-7.387064934E0,4.089739799E0
5.140797443E0,-2.462321281E0,-2.919535637E0,2.967314720E0
5.149712443E0,-2.478283405E0,-2.913773537E0,2.234831333E0
5.159989443E0,-3.901192665E0,7.682371140E-1,1.800067902E0
5.169713443E0,-4.369719028E0,1.825197697E0,1.276625037E0
5.179743443E0,-4.595995426E0,2.280336380E0,8.053671122E-1
5.190612443E0,-4.694779873E0,2.176539421E0,4.360206127E-1
5.199662443E0,-4.386570454E0,1.218550682E0,3.129167855E-1
5.209756443E0,-3.898593426E0,-1.517868042E-1,5.889379382E-1
5.219704443E0,-3.433166504E0,-1.514906883E0,1.027376771E0
5.229703443E0,-3.210643768E0,-2.604593277E0,1.547216535E0
5.239639443E0,-3.356083393E0,-3.356887817E0,2.075848341E0
5.249755443E0,-3.434053421E0,-3.874261856E0,2.487968206E0
5.259899443E0,-3.269740820E0,-3.802577019E0,2.837945461E0
5.269861443E0,-3.234622955E0,-3.141505241E0,3.011823893E0
5.279696443E0,-3.223654270E0,-2.087002754E0,2.875570536E0
5.290057443E0,-3.193173885E0,-9.828624725E-1,2.500479460E0
5.299665443E0,-3.249466419E0,1.616191864E-2,2.158397913E0
5.309718443E0,-3.329358816E0,7.904706001E-1,1.833351135E0
5.319707443E0,-3.338731289E0,1.300909996E0,1.522173405E0
5.329734443E0,-3.329462767E0,1.624323368E0,1.267369151E0
5.339864443E0,-3.421024799E0,1.833835602E0,1.104325533E0
5.349698443E0,-3.524918556E0,1.904279709E0,9.118536115E-1
5.359703443E0,-3.629255295E0,1.950833797E0,8.084774017E-1
5.369869443E0,-3.608809948E0,1.924962997E0,7.246931195E-1
5.379686443E0,-3.507652760E0,1.797599316E0,6.066957116E-1
5.389640443E0,-3.372769833E0,1.576158524E0,5.263479352E-1
5.399682443E0,-3.228302479E0,1.306653976E0,4.711474180E-1
5.409729443E0,-3.078036070E0,1.073697567E0,4.130582213E-1
5.419899443E0,-2.941003799E0,9.348549843E-1,3.695037663E-1
5.429868443E0,-2.836385250E0,8.948841095E-1,3.403951526E-1
5.439673443E0,-2.695840597E0,8.774471283E-1,3.387930095E-1
5.449649443E0,-2.531415701E0,8.457670212E-1,3.318278491E-1
5.459950443E0,-2.301907301E0,7.907161713E-1,3.707692623E-1
5.469908443E0,-1.967912674E0,6.400198936E-1,4.581693411E-1
5.479707443E0,-1.608686686E0,5.248293877E-1,5.589870811E-1
5.489741443E0,-1.275124550E0,4.464569092E-1,6.708143353E-1
5.499673443E0,-9.848582745E-1,4.539899826E-1,7.244120240E-1
5.509950443E0,-6.949398518E-1,4.504222870E-1,7.775684595E-1
5.519695443E0,-3.589291573E-1,4.022197723E-1,8.539373875E-1
5.529724443E0,9.240627289E-3,2.943229675E-1,8.011275530E-1
5.540863443E0,3.536005020E-1,1.598472595E-1,5.985708833E-1
5.549665443E0,6.889119148E-1,-1.095008850E-2,3.155325353E-1
5.559684443E0,1.039384842E0,-2.505931854E-1,1.392447948E-2
5.569685443E0,1.408976555E0,-5.337667465E-1,-3.530880213E-1
5.579747443E0,1.806679726E0,-9.707365036E-1,-7.173509598E-1
5.589915443E0,2.317507267E0,-1.493925095E0,-1.212971210E0
5.599747443E0,2.831397533E0,-1.983461380E0,-1.818889499E0
5.609670443E0,3.455663204E0,-2.497821808E0,-2.514726162E0
5.619734443E0,4.166108608E0,-2.792820930E0,-3.325031757E0
5.629918443E0,4.991038322E0,-2.862528801E0,-4.652837753E0
5.639668443E0,5.798484802E0,-2.703297615E0,-6.720497608E0
5.650500443E0,5.974438190E0,-1.780170441E0,-8.305183411E0
5.659751443E0,5.935231686E0,-1.801229477E0,-8.387637138E0
5.670585443E0,5.044370174E0,-2.450984001E0,-6.540966988E0
5.679724443E0,5.013962269E0,-2.466350555E0,-6.521877766E0
5.690687443E0,5.761783123E0,-5.534739494E0,-1.967901111E0
5.699676443E0,4.120974541E0,-4.540894508E0,-4.727344513E-1
5.710900443E0,2.190111637E0,-2.758122444E0,5.383563787E-2
5.719780443E0,7.558283806E-1,-1.241873741E0,2.368044257E-1
5.730462443E0,-3.025169373E-1,-4.702568054E-3,3.977379203E-1
5.739911443E0,-1.124779940E0,1.019938469E0,6.328028440E-1
5.750750443E0,-1.593800068E0,1.690654278E0,8.687281609E-1
5.759672443E0,-1.905634642E0,2.041991234E0,9.338994026E-1
5.770630443E0,-2.112037182E0,2.069792747E0,9.171434641E-1
5.779702443E0,-2.294977665E0,1.657373428E0,9.311965704E-1
5.790846443E0,-2.319175482E0,8.284125328E-1,8.430366516E-1
5.799822443E0,-2.371022701E0,-3.179168701E-1,7.443886995E-1
5.809700443E0,-2.634733915E0,-1.489128113E0,4.533907771E-1
5.819714443E0,-3.348736763E0,-2.581064224E0,1.151713133E-1
5.829668443E0,-4.310797215E0,-3.459430695E0,-9.470427036E-2
5.839711443E0,-4.955089092E0,-3.989400864E0,-9.500467777E-2
5.849874443E0,-5.404272079E0,-3.869037628E0,6.209433079E-2
5.859658443E0,-5.976952076E0,-3.186265945E0,3.556284010E-1
5.869950443E0,-6.216588974E0,-2.274348259E0,6.910907626E-1
5.879854443E0,-5.965093136E0,-1.277320862E0,9.210709333E-1
5.889812443E0,-5.739027023E0,-1.539134979E-1,1.079977870E0
5.899708443E0,-5.676002979E0,9.158706665E-1,1.172533393E0
5.909710443E0,-5.658885479E0,1.755810738E0,1.235212803E0
5.919793443E0,-5.597188473E0,2.317688465E0,1.336668968E0
5.929757443E0,-5.463686943E0,2.590579510E0,1.484054327E0
5.939652443E0,-5.344786167E0,2.859912395E0,1.942553878E0
5.949663443E0,-5.389517784E0,3.177992344E0,1.890654802E0
5.959981443E0,-5.361361027E0,3.270300388E0,1.873620033E0
5.969707443E0,-5.154176235E0,3.172604561E0,1.644426584E0
5.979751443E0,-4.872377396E0,2.938522816E0,1.343793631E0
5.991268443E0,-4.479279995E0,2.564559937E0,1.211690426E0
5.999720443E0,-4.126099586E0,2.122490406E0,1.117135286E0
6.009684443E0,-3.646926880E0,1.654651642E0,1.081467867E0
6.019674443E0,-2.987617254E0,1.212981224E0,1.096915007E0
6.029776443E0,-2.299198866E0,7.717747688E-1,1.104121447E0
6.039736443E0,-1.829518318E0,5.403776169E-1,1.034670353E0
6.049716443E0,-1.604773998E0,4.303317070E-1,1.430804372E0
6.059709443E0,-8.834652901E-1,-2.099313736E-1,1.574732423E0
6.069946443E0,-9.942436218E-2,-7.963571548E-1,8.458861709E-1
6.079735443E0,3.820610046E-2,-1.086719513E0,1.445216298E0
6.089724443E0,3.928961754E-1,-1.374732018E0,1.054902434E0
6.099779443E0,4.080457687E-1,-1.437925339E0,9.903718829E-1
6.109730443E0,7.522268295E-1,-1.651006699E0,1.048879027E0
6.119709443E0,1.403512955E0,-1.844082832E0,1.024110436E0
6.129950443E0,2.333045006E0,-1.292215347E0,-7.663351297E-1
6.139712443E0,3.377200603E0,-4.504795074E-1,-5.012696743E0
6.149762443E0,4.267195225E0,-4.492330551E-1,-9.374088287E0
6.160094443E0,4.318490505E0,-6.296911240E-1,-1.282241917E1
6.169768443E0,3.326035023E0,-5.389957428E-1,-1.359387207E1
6.179734443E0,1.910883904E0,5.697336197E-1,-1.503991318E1
6.189717443E0,1.045702457E0,1.909596443E0,-1.345530224E1
6.199710443E0,1.337424755E0,1.309998035E0,-9.457300186E0
6.209722443E0,2.017115116E0,1.613383293E-1,-7.416869164E0
6.219689443E0,2.181701660E0,-6.737957001E-1,-5.744283199E0
6.229818443E0,4.595532417E-1,-2.413243294E0,-1.396160364E0
6.244969443E0,1.985783577E-1,-3.989263535E0,3.785557747E-1
6.259775443E0,-3.548541069E-1,-6.966446877E0,2.120118141E0
6.269724443E0,-7.994647026E-1,-8.155083656E0,2.679280043E0
6.279743443E0,-1.105020046E0,-8.527672768E0,3.698853493E0
6.289705443E0,-2.141972780E0,-7.560327530E0,4.304286003E0
6.299666443E0,-3.038587332E0,-5.236891747E0,4.454748631E0
6.309933443E0,-4.001307964E0,-2.719240189E0,4.148456573E0
6.319702443E0,-4.212179184E0,-7.151908875E-1,3.297554016E0
6.330026443E0,-3.910060406E0,7.180142403E-1,2.414193392E0
6.339724443E0,-3.630992889E0,1.659286499E0,1.501957655E0
6.349720443E0,-4.041999340E0,2.180450916E0,9.109920263E-1
6.360049443E0,-4.320142746E0,1.987831116E0,4.940741658E-1
6.369713443E0,-3.977648020E0,9.194393158E-1,4.738970399E-1
6.379719443E0,-3.128112793E0,-4.005546570E-1,1.130833030E0
6.389668443E0,-2.206663132E0,-1.462144852E0,1.975998402E0
6.399685443E0,-1.762218475E0,-2.056568146E0,2.820183039E0
6.409780443E0,-1.532906294E0,-2.295907021E0,3.326950312E0
6.419716443E0,-1.586379051E0,-1.939116478E0,3.401732206E0
6.430444443E0,-1.807157993E0,-1.131575584E0,2.772237062E0
6.439710443E0,-1.973775387E0,-3.476390839E-1,2.210366726E0
6.450445443E0,-2.021163940E0,1.939725876E-1,1.807697058E0
6.459708443E0,-2.047037840E0,6.052355766E-1,1.464544773E0
6.470562443E0,-2.050106764E0,9.009628296E-1,1.217351079E0
6.479688443E0,-2.047235966E0,1.144619942E0,1.071336269E0
6.491220443E0,-2.169330359E0,1.348761559E0,9.721113443E-1
6.499688443E0,-2.260252714E0,1.465317249E0,8.885457516E-1
6.510346443E0,-2.335351229E0,1.534032345E0,7.805793285E-1
6.520094443E0,-2.396422148E0,1.504540920E0,6.055296063E-1
6.530797443E0,-2.406317949E0,1.349716187E0,4.037018120E-1
6.539721443E0,-2.365828514E0,1.155603409E0,2.080605626E-1
6.550225443E0,-2.327129602E0,1.006368160E0,6.004792452E-2
6.559665443E0,-2.334571123E0,9.121289253E-1,-8.890628815E-4
6.571014443E0,-2.385230064E0,8.639135361E-1,-2.564996481E-2
6.579896443E0,-2.471581221E0,8.851933479E-1,-9.617137909E-2
6.590756443E0,-2.521327734E0,9.495110512E-1,-1.626175046E-1
6.599730443E0,-2.537229300E0,9.865531921E-1,-2.220394313E-1
6.611293443E0,-2.521609068E0,1.007988453E0,-2.300865352E-1
6.619957443E0,-2.408048868E0,9.239897728E-1,-2.266208827E-1
6.630525443E0,-2.238420248E0,7.918977737E-1,-2.154524326E-1
6.639997443E0,-1.997561455E0,6.281709671E-1,-2.046750188E-1
6.651120443E0,-1.715295315E0,4.544587135E-1,-1.556295156E-1
6.659718443E0,-1.446665764E0,3.246488571E-1,-1.127069443E-1
6.670446443E0,-1.176571131E0,2.460746765E-1,-5.723813176E-2
6.679651443E0,-8.734869957E-1,2.022886276E-1,-1.444295049E-2
6.689650443E0,-5.541629791E-1,1.332569122E-1,-6.480015814E-3
6.700133443E0,-2.252168655E-1,2.193927765E-2,-1.036351547E-1
6.709814443E0,1.180653572E-1,-1.658611298E-1,-3.397165537E-1
6.721150443E0,5.972828865E-1,-5.266504288E-1,-9.549995065E-1
6.729708443E0,6.041378975E-1,-5.226879120E-1,-9.822843671E-1
6.739828443E0,7.818408012E-1,-7.442865372E-1,-1.216754913E0
6.749807443E0,1.008218288E0,-9.784440994E-1,-1.481971025E0
6.759747443E0,1.297676086E0,-1.264081001E0,-2.070666552E0
6.769720443E0,2.204618454E0,-2.021563530E0,-2.478498936E0
6.779915443E0,2.787635326E0,-2.457296371E0,-3.056191444E0
6.789916443E0,3.398411751E0,-2.908112526E0,-3.847909927E0
6.799696443E0,3.855015278E0,-3.278203964E0,-4.917741776E0
6.809724443E0,4.012877464E0,-3.596371651E0,-6.017026424E0
6.819816443E0,3.604632378E0,-3.633430481E0,-6.066036701E0
6.829730443E0,3.028549671E0,-3.740898132E0,-5.048017025E0
6.839691443E0,2.819371223E0,-4.267483711E0,-3.879138708E0
6.849794443E0,3.093554497E0,-4.831985474E0,-2.985511780E0
6.859889443E0,3.198174953E0,-4.887523651E0,-2.332590818E0
6.869894443E0,2.293829918E0,-3.890233994E0,-2.020937681E0
6.879875443E0,6.952371597E-1,-2.082811356E0,-1.558931589E0
6.890235443E0,-4.406318665E-1,-5.589075089E-1,-9.458096027E-1
6.899755443E0,-1.225505114E0,4.592103958E-1,-6.919084787E-1
6.909668443E0,-1.743420839E0,9.615087509E-1,-6.828601360E-1
6.921215443E0,-2.074552536E0,1.127850056E0,-4.421522617E-1
6.929652443E0,-2.315829039E0,1.069825649E0,-3.193961978E-1
6.940722443E0,-2.506934404E0,8.254437447E-1,-2.253951430E-1
6.949673443E0,-2.663470030E0,3.725543022E-1,-2.113601863E-1
6.959665443E0,-3.069353819E0,-2.074708939E-1,-2.487099767E-1
6.969975443E0,-3.858000755E0,-9.837837219E-1,-2.701677680E-1
6.979703443E0,-4.603787422E0,-1.922899246E0,-3.947486877E-1
6.990196443E0,-5.139557362E0,-2.971852303E0,-4.748370051E-1
6.999657443E0,-5.863838196E0,-3.788377762E0,-1.584252715E-1
7.009631443E0,-6.116080761E0,-4.180037498E0,3.897737861E-1
7.019717443E0,-5.988606930E0,-4.161259651E0,9.661159515E-1
7.029808443E0,-5.857439995E0,-3.708482742E0,1.628359914E0
7.039847443E0,-5.958059311E0,-2.786315918E0,1.945358396E0
7.049713443E0,-5.884819508E0,-1.597607613E0,2.173136711E0
7.059736443E0,-5.670094967E0,-3.371133804E-1,2.311526299E0
7.071285443E0,-5.577172756E0,6.899890900E-1,2.241702318E0
7.079715443E0,-5.387223244E0,1.401446342E0,2.219453573E0
7.089713443E0,-5.020073414E0,1.818270206E0,2.167660236E0
7.099718443E0,-5.028842449E0,2.326859951E0,2.167323589E0
7.109812443E0,-5.118980885E0,2.742239475E0,1.989847541E0
7.119822443E0,-5.092322826E0,2.972566128E0,1.653445959E0
7.129685443E0,-4.838316441E0,3.028891087E0,1.509384632E0
7.139831443E0,-4.655767441E0,2.976190090E0,1.475378871E0
7.149629443E0,-4.596060753E0,2.775406837E0,9.972265959E-1
7.159676443E0,-4.338620663E0,2.423321724E0,8.476485014E-1
7.169657443E0,-3.763705969E0,1.839349747E0,1.262920976E0
7.179692443E0,-3.176362038E0,1.231308460E0,1.311760664E0
7.189733443E0,-2.820361853E0,7.205300331E-1,1.477073431E0
7.199913443E0,-2.292269945E0,-5.646896362E-2,2.068738699E0
7.209673443E0,-1.525546551E0,-8.675231934E-1,2.199129105E0
7.220791443E0,-9.986767769E-1,-1.011295319E0,2.144556999E0
7.229866443E0,-7.726840973E-1,-1.118717194E0,3.150251627E0
7.239810443E0,-2.599072456E-1,-1.452065468E0,3.998702049E0
7.249651443E0,3.188633919E-1,-1.365262985E0,3.646199226E0
7.259795443E0,-2.204322815E-2,-7.165460587E-1,2.979109526E0
7.269687443E0,4.847679138E-1,-4.501142502E-1,2.332841396E0
7.279716443E0,1.456204891E0,-4.570064545E-1,1.268955469E0
7.289740443E0,3.413532734E0,-5.093069077E-1,-5.775976181E-1
7.299652443E0,8.715131760E0,-1.884336472E-1,-1.038079357E1
7.312041443E0,7.801040173E0,1.161003113E-2,-1.409051418E1
7.329880443E0,2.637744904E0,2.004622459E0,-1.885412979E1
7.341119443E0,9.074759483E-1,1.702743530E0,-1.446430969E1
7.349926443E0,3.906397820E-1,5.112371445E-1,-7.843175888E0
7.359728443E0,4.776625633E-1,5.410070419E-1,-3.749265909E0
7.369698443E0,7.822504044E-1,2.915472984E-1,-1.333771467E0
7.379643443E0,1.045256138E0,-7.838430405E-1,9.276121855E-1
7.389705443E0,1.722669125E0,-2.345596313E0,2.750378370E0
7.399680443E0,2.046484947E0,-3.672740936E0,3.751872063E0
7.409695443E0,1.830356121E0,-4.925856590E0,4.042195797E0
7.419714443E0,1.667114258E0,-6.230216026E0,3.769687653E0
7.429865443E0,1.362831116E0,-7.304804802E0,3.542859077E0
7.439681443E0,4.251022339E-1,-7.597146988E0,3.375695944E0
7.449700443E0,-7.430763245E-1,-6.656259537E0,3.008116245E0
7.459674443E0,-2.144093037E0,-4.752360344E0,2.429014206E0
7.469691443E0,-3.317974806E0,-2.475253105E0,1.868247747E0
7.479845443E0,-4.122066021E0,-4.909181595E-1,1.250744224E0
7.491464443E0,-4.307140350E0,8.810033798E-1,7.708376646E-1
7.499674443E0,-4.340818882E0,1.583720684E0,5.413035154E-1
7.509965443E0,-4.612930298E0,1.885298252E0,4.348129630E-1
7.519719443E0,-4.694098949E0,1.633245468E0,4.233885109E-1
7.529679443E0,-4.676195145E0,1.016995907E0,9.172627330E-1
7.539689443E0,-4.422104359E0,1.635532379E-1,1.643839240E0
7.549750443E0,-3.878997326E0,-7.749795914E-1,2.325928926E0
7.559904443E0,-3.059416771E0,-1.477766037E0,3.093182564E0
7.569748443E0,-2.533927679E0,-1.716579437E0,3.784821987E0
7.579679443E0,-2.388725758E0,-1.568620682E0,4.088924885E0
7.589961443E0,-2.216302395E0,-1.223569870E0,3.837211370E0
7.599701443E0,-1.977608919E0,-7.823438644E-1,3.352125645E0
7.609687443E0,-1.740159750E0,-3.702545166E-1,2.852620602E0
7.619670443E0,-1.529515982E0,-6.954002380E-2,2.373794079E0
7.629714443E0,-1.463997126E0,1.858510971E-1,1.943128467E0
7.642169443E0,-1.379326820E0,4.263586998E-1,1.603437662E0
7.659675443E0,-1.374059200E0,7.778329849E-1,1.159554720E0
7.669688443E0,-1.543624640E0,9.645771980E-1,8.015408516E-1
7.679692443E0,-1.759596348E0,1.135206223E0,2.263426483E-1
7.689670443E0,-2.043263674E0,1.349177837E0,-3.348591924E-1
7.699652443E0,-2.327340364E0,1.597807884E0,-7.102894187E-1
7.709630443E0,-2.310165167E0,1.821145058E0,-9.500666857E-1
7.719801443E0,-2.295462132E0,2.047492027E0,-7.696177363E-1
7.730764443E0,-2.292850733E0,2.097931385E0,-4.666296542E-1
7.739670443E0,-2.077610016E0,1.877917290E0,-3.022551239E-1
7.750508443E0,-1.732724428E0,1.481691837E0,-2.054612041E-1
7.759726443E0,-1.379044294E0,1.109116077E0,-1.504395902E-1
7.771185443E0,-9.432675838E-1,6.267752647E-1,-3.554419428E-2
7.779717443E0,-9.146511555E-1,6.432032585E-1,-5.835691467E-2
7.789731443E0,-7.564730644E-1,4.977979660E-1,-2.547346428E-2
7.799699443E0,-5.305128098E-1,4.017429352E-1,5.225624889E-3
7.809676443E0,-2.882866859E-1,2.813425064E-1,7.633797824E-2
7.819740443E0,-7.379865646E-2,2.403869629E-1,1.554261297E-1
7.829747443E0,8.814144135E-2,2.433462143E-1,1.362707615E-1
7.842288443E0,3.548254967E-1,3.933639526E-1,-2.124181837E-1
7.860066443E0,6.155395508E-1,5.590553284E-1,-7.022650838E-1
7.869821443E0,7.979946136E-1,5.370540619E-1,-9.723644853E-1
7.879713443E0,1.043246746E0,4.360847473E-1,-1.248619437E0
7.889756443E0,1.260606766E0,2.897062302E-1,-1.459535956E0
7.899678443E0,1.455047131E0,1.056900024E-1,-1.645825386E0
7.909733443E0,1.688911915E0,-1.356515884E-1,-1.821319938E0
7.919689443E0,1.970276833E0,-3.920497894E-1,-2.002220154E0
7.929830443E0,2.308629990E0,-7.072639465E-1,-2.254336119E0
7.939662443E0,2.681921005E0,-1.124813080E0,-2.430964470E0
7.949882443E0,3.172349930E0,-1.589429855E0,-2.456640244E0
7.959733443E0,3.744264126E0,-2.157903671E0,-2.372477293E0
7.969715443E0,4.271170616E0,-2.723934174E0,-2.189873695E0
7.979695443E0,4.696878433E0,-3.327663422E0,-2.190139771E0
7.989639443E0,4.861857891E0,-3.926352501E0,-2.311184883E0
7.999684443E0,4.771538258E0,-4.543205261E0,-2.381162643E0
8.009834443E0,4.371510029E0,-4.952260971E0,-2.348448753E0
8.019686443E0,3.397105694E0,-4.594459534E0,-2.138662100E0
8.029711443E0,2.098754406E0,-3.398241043E0,-1.669592738E0
8.039701443E0,9.632430077E-1,-2.128702164E0,-1.076001883E0
8.049821443E0,8.308458328E-2,-1.110305786E0,-5.191448927E-1
8.059713443E0,-5.893187523E-1,-4.271116257E-1,-4.107669368E-2
8.069655443E0,-1.063025475E0,3.090000153E-2,2.937508821E-1
8.079641443E0,-1.433661461E0,2.814006805E-1,3.397638798E-1
8.089816443E0,-1.717859745E0,2.921352386E-1,3.260591626E-1
8.099795443E0,-2.026201725E0,1.627101898E-1,3.209025264E-1
8.109750443E0,-2.388939381E0,-9.623241425E-2,3.103559911E-1
8.119773443E0,-2.978870869E0,-5.080890656E-1,2.370335758E-1
8.129697443E0,-3.417984962E0,-1.153508186E0,2.529939413E-1
8.139696443E0,-3.844140053E0,-1.923426628E0,3.269079030E-1
8.149691443E0,-4.352373123E0,-2.691637039E0,3.626292050E-1
8.159679443E0,-4.697344303E0,-3.346282959E0,4.547539353E-1
8.170859443E0,-5.033363819E0,-3.697509766E0,4.104857445E-1
8.179696443E0,-5.330884457E0,-3.839650154E0,4.407721758E-1
8.189671443E0,-5.226313114E0,-3.775256157E0,7.164432406E-1
8.199736443E0,-4.889636517E0,-3.334900856E0,1.065705061E0
8.209930443E0,-4.788368225E0,-2.468395233E0,1.490596890E0
8.219829443E0,-4.641295433E0,-1.322741508E0,1.538665652E0
8.230455443E0,-4.563486576E0,-2.536630630E-1,1.142359257E0
8.239669443E0,-4.844221592E0,7.019619942E-1,9.592962861E-1
8.250698443E0,-5.217241764E0,1.417715073E0,7.505716681E-1
8.259860443E0,-5.571187496E0,2.023080349E0,5.622265339E-1
8.269903443E0,-5.693377018E0,2.568623066E0,5.538590550E-1
8.279714443E0,-5.535952568E0,3.013008595E0,7.121621966E-1
8.289719443E0,-5.580769539E0,3.214543343E0,6.049024463E-1
8.299708443E0,-5.350500107E0,3.217065334E0,6.342261434E-1
8.309693443E0,-5.119010925E0,3.155655384E0,1.289939880E0
8.319714443E0,-4.739892483E0,3.073102474E0,1.527875304E0
8.329744443E0,-4.356867790E0,2.789065361E0,1.780490637E0
8.339656443E0,-3.787468910E0,2.373817444E0,1.868646860E0
8.349870443E0,-3.198469162E0,1.826473713E0,1.765267849E0
8.359696443E0,-2.504672289E0,1.259761333E0,1.671265602E0
8.369689443E0,-1.738361597E0,6.352157593E-1,1.109889507E0
8.380158443E0,-8.530173302E-1,2.251052856E-2,9.279997945E-1
8.389671443E0,-5.398478508E-1,-1.640634537E-1,1.556908011E0
8.399780443E0,2.583951950E-1,-5.945434570E-1,2.458014011E0
8.409730443E0,9.212346077E-1,-4.291658401E-1,1.967526436E0
8.419731443E0,7.828803062E-1,-2.071905136E-1,2.475780487E0
8.429711443E0,1.313262463E0,-1.636152267E-1,2.406205893E0
8.439701443E0,1.735929489E0,-1.505117416E-1,2.284347773E0
8.449783443E0,2.110661983E0,-1.461906433E-1,1.976315856E0
8.459929443E0,2.522200584E0,-2.078561783E-1,1.389561176E0
8.469937443E0,2.775340080E0,-3.445463181E-1,6.483616233E-1
8.479885443E0,3.170809746E0,-6.735744476E-1,-6.452654600E-1
8.489713443E0,6.079391479E0,-1.634615898E0,-6.626019001E0
8.499698443E0,4.786317825E0,-2.239316940E0,-1.203269672E1
8.509942443E0,1.792096138E0,-2.582878113E0,-1.151875496E1
8.519713443E0,7.788558006E-1,-2.977884293E0,-1.025890923E1
8.530568443E0,7.524766922E-1,-2.485702515E0,-1.114534283E1
8.539873443E0,1.173877716E0,-1.512563705E0,-1.189645958E1
8.550606443E0,1.584562778E0,-1.899652481E0,-8.942587852E0
8.559794443E0,1.382781982E0,-2.499444008E0,-4.910580635E0
8.570678443E0,1.069148540E0,-2.781860352E0,-1.926375031E0
8.579936443E0,8.282976151E-1,-3.098410606E0,4.408973455E-1
8.589711443E0,8.038411140E-1,-4.006872177E0,1.930699229E0
8.599740443E0,6.181964874E-1,-5.275835037E0,2.352263927E0
8.609878443E0,2.022819519E-1,-6.040791512E0,2.479316950E0
8.619719443E0,-3.804683685E-1,-5.793289185E0,2.705616713E0
8.629696443E0,-1.380485535E0,-4.408419609E0,2.775327444E0
8.639828443E0,-2.593476772E0,-2.552912712E0,2.295683384E0
8.649704443E0,-3.496325731E0,-8.404378891E-1,1.501673579E0
8.660166443E0,-3.979359150E0,5.021619797E-1,9.243366718E-1
8.669748443E0,-4.206100941E0,1.364693642E0,5.792763829E-1
8.679724443E0,-4.617338181E0,1.870565414E0,2.993301749E-1
8.690115443E0,-5.014724255E0,2.013495922E0,1.925783753E-1
8.699783443E0,-5.432260990E0,1.705374241E0,1.024988294E-1
8.709739443E0,-5.475155354E0,8.293800354E-1,1.939737797E-2
8.719717443E0,-5.019467831E0,-3.426570892E-1,3.828454614E-1
8.729674443E0,-4.283596516E0,-1.259059906E0,1.296789408E0
8.739722443E0,-3.609892845E0,-1.984644890E0,2.150438547E0
8.749905443E0,-3.135006666E0,-2.490364075E0,2.908498764E0
8.759875443E0,-2.943365335E0,-2.600455284E0,3.422541618E0
8.769751443E0,-2.779163122E0,-2.557713509E0,3.567723513E0
8.779792443E0,-2.636896849E0,-2.284790993E0,3.357349396E0
8.789766443E0,-2.611544132E0,-1.739302635E0,2.865439177E0
8.799698443E0,-2.586534023E0,-1.074040413E0,2.273899317E0
8.809845443E0,-2.401481867E0,-5.632143021E-1,1.792583108E0
8.819744443E0,-2.229152441E0,-1.447982788E-1,1.390903234E0
8.830227443E0,-2.172934294E0,1.614480019E-1,1.035047412E0
8.839716443E0,-2.129065037E0,3.851308823E-1,6.600573659E-1
8.849726443E0,-2.188890696E0,5.503382683E-1,3.962590694E-1
8.859764443E0,-2.306105852E0,7.115116119E-1,1.592781246E-1
8.869763443E0,-2.431521416E0,8.735394478E-1,-6.171381474E-2
8.879697443E0,-2.549144983E0,9.972472191E-1,-2.508931756E-1
8.889734443E0,-2.684236288E0,1.082110405E0,-3.956681192E-1
8.899674443E0,-2.781368017E0,1.140325546E0,-5.594072938E-1
8.909837443E0,-2.789531708E0,1.190289974E0,-7.154150605E-1
8.919698443E0,-2.733355522E0,1.247053623E0,-7.296259403E-1
8.929658443E0,-2.693088293E0,1.267120361E0,-7.539537549E-1
8.939771443E0,-2.575759888E0,1.165822506E0,-7.326830029E-1
8.949678443E0,-2.323975086E0,9.852175713E-1,-6.142010093E-1
8.959789443E0,-1.964791536E0,7.534656525E-1,-4.059621692E-1
8.969858443E0,-1.625021219E0,5.828018188E-1,-1.910048127E-1
8.980215443E0,-1.314987659E0,5.315780640E-1,-2.490472794E-2
8.989669443E0,-1.057072163E0,5.318346024E-1,1.501625031E-1
8.999734443E0,-8.154373169E-1,5.776739120E-1,3.020411730E-1
9.009665443E0,-5.682973862E-1,5.952210426E-1,3.347925544E-1
9.019942443E0,-2.862801552E-1,5.777339935E-1,2.574287057E-1
9.029671443E0,-2.795696259E-3,5.264787674E-1,9.658932686E-2
9.039679443E0,2.953939438E-1,4.353327751E-1,-1.314747483E-1
9.049632443E0,6.177878380E-1,2.997970581E-1,-3.772042394E-1
9.062770443E0,9.387359619E-1,1.308794022E-1,-6.930986047E-1
9.079693443E0,1.421571732E0,-2.006015778E-1,-1.397504091E0
9.089649443E0,1.700791359E0,-4.583215714E-1,-1.614935279E0
9.099668443E0,2.108218193E0,-6.719141006E-1,-2.031915665E0
9.110360443E0,2.596692562E0,-1.024260521E0,-2.318871975E0
9.119713443E0,3.090317726E0,-1.428775787E0,-2.322240114E0
9.130508443E0,3.666428089E0,-1.978738785E0,-1.915944099E0
9.139682443E0,4.323446751E0,-2.689613342E0,-1.891476631E0
9.150675443E0,4.960794449E0,-3.521860123E0,-2.129546642E0
9.159786443E0,5.623724461E0,-4.446427345E0,-2.415764093E0
9.170412443E0,5.718845367E0,-5.108577728E0,-2.480733156E0
9.179686443E0,5.018037319E0,-5.329400063E0,-2.492867231E0
9.189781443E0,4.243436337E0,-5.487125397E0,-2.637361050E0
9.199703443E0,3.493484497E0,-5.236127853E0,-2.660040379E0
9.209679443E0,2.233701229E0,-3.904911995E0,-2.442787170E0
9.219654443E0,9.206905365E-1,-2.260489464E0,-2.133843422E0
9.230362443E0,-1.982326508E-1,-8.909082413E-1,-1.812895298E0
9.239800443E0,-9.727611542E-1,6.961345673E-2,-1.351052761E0
9.249686443E0,-1.527153254E0,7.040781975E-1,-1.056663036E0
9.259668443E0,-1.925372124E0,1.147389412E0,-8.972867131E-1
9.269713443E0,-2.220147371E0,1.385066032E0,-8.558868170E-1
9.279716443E0,-2.428686619E0,1.387641907E0,-7.873299718E-1
9.289768443E0,-2.573995829E0,1.216764450E0,-8.703191876E-1
9.299772443E0,-2.640732288E0,8.183717728E-1,-1.037836075E0
9.310860943E0,-3.401633263E0,-3.912658691E-1,-1.137463808E0
9.320273193E0,-4.204081059E0,-1.212020874E0,-1.239031553E0
9.329995318E0,-4.730124474E0,-2.238520622E0,-1.332906246E0
9.339835380E0,-4.737097263E0,-3.251376152E0,-1.342177391E0
9.351805911E0,-5.790738106E0,-4.361357689E0,-1.052230000E0
9.369695443E0,-5.790738106E0,-4.361357689E0,-1.052230000E0
9.379698443E0,-5.421044350E0,-4.302606583E0,-5.187854171E-1
9.391740443E0,-5.179746628E0,-2.875975609E0,6.489852667E-1
9.409653443E0,-4.532339096E0,-1.726631165E0,9.336012602E-1
9.419749443E0,-4.183414459E0,-5.534439087E-1,7.079629898E-1
9.429628443E0,-4.361454964E0,6.106276512E-1,6.587514877E-1
9.439802443E0,-4.972787857E0,2.244669914E0,-2.038215995E-1
9.449648443E0,-5.308041573E0,2.710558891E0,-5.669488907E-1
9.459708443E0,-5.438091755E0,3.055757523E0,-5.504939556E-1
9.470854443E0,-5.241044044E0,3.413073063E0,-8.965802193E-2
9.479704443E0,-5.236809731E0,3.674643040E0,2.075052857E-1
9.489622443E0,-5.219458580E0,3.812491417E0,2.163666487E-1
9.499650443E0,-5.276049137E0,3.870908260E0,6.166577339E-1
9.509727443E0,-5.103477955E0,3.738054276E0,9.309808612E-1
9.519676443E0,-4.571321487E0,3.245959759E0,1.005302191E0
9.529797443E0,-3.915331364E0,2.595774651E0,1.249799013E0
9.539782443E0,-2.981419563E0,1.832142830E0,1.403641105E0
9.550524443E0,-2.142668009E0,1.184370995E0,8.753688931E-1
9.559914443E0,-1.613396883E0,3.434000015E-1,5.122433901E-1
9.570521443E0,-9.030201435E-1,-8.274497986E-1,2.071446180E-1
9.579710443E0,-1.205253601E-1,-1.722757339E0,-1.106739640E-1
9.590968443E0,2.764816284E-1,-2.147532463E0,2.212532163E-1
9.599706443E0,9.736223221E-1,-2.825283051E0,1.626838923E0
9.609795443E0,2.281347275E0,-3.060322762E0,2.248697758E0
9.619699443E0,2.486744404E0,-2.535924911E0,3.501729250E0
9.629723443E0,2.772658825E0,-1.785948753E0,3.697467566E0
9.639843443E0,2.903988361E0,-1.003297806E0,2.963780403E0
9.649786443E0,3.242931366E0,-3.604984283E-1,1.866173267E0
9.659692443E0,4.007116318E0,-2.526092529E-2,2.291337252E-1
9.669675443E0,6.956394196E0,-3.402948380E-1,-4.983123302E0
9.679870443E0,9.421255112E0,-6.353673935E-1,-1.180345345E1
9.689659443E0,7.975764751E0,-2.683849335E-1,-1.493341446E1
9.700125443E0,5.351260185E0,6.042757034E-1,-1.376258564E1
9.709665443E0,4.849874496E0,1.141612053E0,-1.777484894E1
9.719784443E0,4.534174919E0,1.069454193E0,-1.621576118E1
9.729845443E0,3.276223660E0,3.251800537E-1,-7.136292458E0
9.739672443E0,2.852200508E0,-5.620718002E-1,4.831383824E-1
9.749666443E0,3.076279163E0,-1.834588051E0,3.864966869E0
9.759968443E0,3.434682369E0,-2.877655029E0,4.139552116E0
9.769747443E0,3.215088844E0,-3.834680557E0,4.033015251E0
9.780115443E0,2.702692986E0,-4.686318398E0,3.830332279E0
9.789709443E0,1.939698219E0,-5.323081970E0,3.670888662E0
9.799676443E0,8.359694481E-1,-5.127783775E0,3.098963261E0
9.809834443E0,-5.902490616E-1,-3.855278015E0,2.500383139E0
9.820064443E0,-2.047866583E0,-2.133172035E0,1.765793800E0
9.829710443E0,-3.073818445E0,-8.057613373E-1,8.677028418E-1
9.839684443E0,-3.724330187E0,-7.220077515E-2,3.255319595E-2
9.849694443E0,-3.943104982E0,1.926903725E-1,-4.364052117E-1
9.859689443E0,-4.163695335E0,1.828927994E-1,-7.937088013E-1
9.869832443E0,-4.577547073E0,1.958303452E-1,-9.800088406E-1
9.879692443E0,-5.510089397E0,3.107199669E-1,-1.126565456E0
9.889687443E0,-6.146351337E0,1.523170471E-1,-1.325940609E0
9.899746443E0,-5.924972057E0,-3.674306870E-1,-1.330133319E0
9.910361443E0,-5.242169380E0,-9.634552002E-1,-6.332348585E-1
9.919649443E0,-4.830665588E0,-1.515532494E0,2.984889746E-1
9.930484443E0,-4.720401287E0,-1.977825165E0,9.867993593E-1
9.939728443E0,-4.766302109E0,-2.115455627E0,1.390235066E0
9.950278443E0,-4.597753048E0,-2.135499001E0,1.568696141E0
9.959698443E0,-4.597890854E0,-2.127453804E0,1.634718418E0
9.971608443E0,-3.569277763E0,-1.908836365E0,1.593130112E0
9.979657443E0,-3.284095287E0,-1.392866135E0,1.507631779E0
9.989661443E0,-2.980949640E0,-7.877664566E-1,1.443830490E0
9.999656443E0,-2.863312244E0,-1.645278931E-2,1.178430557E0
1.001108144E1,-2.898159027E0,5.347943306E-1,9.105115533E-1
1.001971044E1,-2.552609682E0,6.894702911E-1,5.353296995E-1
1.003026444E1,-2.191958666E0,7.673311234E-1,3.205050230E-1
1.003971244E1,-1.988746881E0,9.247379303E-1,1.272515655E-1
1.005323544E1,-1.964275599E0,1.098725319E0,-6.071487069E-2
1.006969044E1,-1.941769600E0,1.251105785E0,-3.469055593E-1
1.007967644E1,-1.872190237E0,1.207863331E0,-4.511755109E-1
1.008972444E1,-1.735959768E0,1.071283340E0,-5.815700889E-1
1.010024344E1,-1.591166973E0,9.219794273E-1,-7.401707172E-1
1.010973044E1,-1.478414774E0,8.393635750E-1,-8.930886984E-1
1.011975344E1,-1.439699650E0,8.364334106E-1,-1.035067320E0
1.012968944E1,-1.366697788E0,8.252668381E-1,-1.177987576E0
1.013972444E1,-1.262463570E0,8.104963303E-1,-1.326240420E0
1.014990144E1,-1.119004011E0,7.715692520E-1,-1.453088045E0
1.015969044E1,-8.837244511E-1,7.635235786E-1,-1.587463379E0
1.016971844E1,-6.245288849E-1,7.955403328E-1,-1.683578491E0
1.017976244E1,-3.084754944E-1,8.027729988E-1,-1.761817455E0
1.019224544E1,1.354932785E-2,8.215670586E-1,-1.803557634E0
1.020976444E1,6.419754028E-1,7.782444954E-1,-1.866564870E0
1.021967444E1,9.385623932E-1,6.752119064E-1,-1.967739224E0
1.022967944E1,1.257736206E0,5.232667923E-1,-2.171162605E0
1.023970844E1,1.547204494E0,3.454093933E-1,-2.413784504E0
1.025041844E1,1.751917362E0,2.140188217E-1,-2.720823288E0
1.025968044E1,1.956893921E0,6.891441345E-2,-3.014492989E0
1.027048544E1,2.253791332E0,-1.731395721E-1,-3.114861012E0
1.027967344E1,2.674500465E0,-5.164899826E-1,-3.196125984E0
1.029061044E1,3.101178646E0,-8.903188705E-1,-3.262168646E0
1.029983444E1,3.566905975E0,-1.411548615E0,-3.288906574E0
1.031069044E1,4.119656563E0,-2.026054382E0,-3.432189941E0
1.031966644E1,4.675258636E0,-2.704029083E0,-3.604681492E0
1.033071444E1,5.164678574E0,-3.474638939E0,-3.851110697E0
1.033966844E1,5.422551632E0,-4.138030052E0,-4.138970375E0
1.035049444E1,5.188337803E0,-4.540279388E0,-3.950706482E0
1.035965144E1,4.693536282E0,-4.931100845E0,-3.152490139E0
1.037049944E1,4.189276218E0,-5.271272659E0,-2.478081703E0
1.037973444E1,3.823618889E0,-5.267082214E0,-2.512901783E0
1.039069644E1,2.970875740E0,-4.440658569E0,-2.091377974E0
1.039967444E1,1.833923817E0,-3.127278328E0,-1.673388600E0
1.041056844E1,7.706041336E-1,-1.910741806E0,-1.285989046E0
1.041967344E1,-1.373500824E-1,-8.529548645E-1,-1.018586755E0
1.043061744E1,-8.982379436E-1,1.057052612E-2,-9.156623483E-1
1.043968844E1,-1.495896339E0,6.676092148E-1,-8.253017068E-1
1.045083744E1,-2.020893335E0,1.209280968E0,-7.724620104E-1
1.045972144E1,-2.765224934E0,1.690075397E0,-6.806307435E-1
1.046963544E1,-3.611868382E0,1.903471470E0,-8.048013449E-1
1.047969744E1,-3.809067011E0,1.660148621E0,-9.146691561E-1
1.048968144E1,-3.847707748E0,1.190367699E0,-6.921738982E-1
1.049979344E1,-4.330833435E0,5.941557884E-1,-5.403823256E-1
1.050967044E1,-4.649991035E0,-9.730052948E-2,-5.418488979E-1
1.051966544E1,-5.401017666E0,-1.703911781E0,-5.483166575E-1
1.052964644E1,-5.477236271E0,-2.496706963E0,-5.383820534E-1
1.053983844E1,-5.573511600E0,-3.019435883E0,-5.783505440E-1
1.054974244E1,-5.466777802E0,-3.253596306E0,-5.827221274E-1
1.055968644E1,-5.118167400E0,-3.136740685E0,-2.696732879E-1
1.056966944E1,-4.851465702E0,-2.595412254E0,-3.147709370E-2
1.057982944E1,-4.549880505E0,-1.871713638E0,2.341629863E-1
1.058970744E1,-4.104243279E0,-1.006688118E0,3.394826949E-1
1.059967844E1,-3.881690025E0,3.174114227E-2,7.723585963E-1
1.060966244E1,-3.855976582E0,9.391489029E-1,7.819137573E-1
1.061987744E1,-4.308513165E0,1.714181900E0,1.839239001E-1
1.062964144E1,-4.656723976E0,2.095572948E0,-7.114152312E-1
1.063963644E1,-4.587958336E0,2.323478699E0,-8.759260178E-1
1.064966444E1,-4.490337372E0,2.652467251E0,-6.937175393E-1
1.066021244E1,-4.226420879E0,3.063116074E0,-1.861503124E-1
1.066968844E1,-4.409430981E0,3.248635769E0,-2.632166147E-1
1.068015244E1,-4.329664707E0,3.244882107E0,-1.524106264E-1
1.068991344E1,-3.672578335E0,2.831953049E0,5.628852248E-1
1.070057844E1,-2.571123600E0,2.358729839E0,7.253174186E-1
1.070966044E1,-1.766391754E0,1.771406651E0,6.825199127E-1
1.071964344E1,-1.315029383E0,9.810013771E-1,2.715483904E-1
1.072962944E1,-1.039796829E0,2.278652191E-1,-1.298246384E-1
1.073982044E1,-7.928645611E-1,-6.763458252E-2,-6.319593787E-1
1.074965644E1,-4.991784096E-1,-3.838033676E-1,-9.468322992E-2
1.075968644E1,6.342887878E-2,-8.417072296E-1,8.870178461E-1
1.076964244E1,7.811398506E-1,-1.056619644E0,1.434858561E0
1.077964744E1,6.486735344E-1,-4.929599762E-1,1.533476830E0
1.078967344E1,8.748235703E-1,-3.812026978E-2,1.904563427E0
1.079971444E1,1.471364975E0,1.825218201E-1,1.998823524E0
1.080970044E1,2.219697952E0,4.234056473E-1,1.885343194E0
1.081964344E1,3.153679848E0,7.655434608E-1,1.602969646E0
1.082967144E1,3.987746716E0,1.136167049E0,1.039767981E0
1.083966244E1,5.214496613E0,1.387928486E0,-5.486577153E-1
1.084973744E1,7.086310863E0,1.205067158E0,-4.918046951E0
1.085983944E1,8.226995468E0,7.837038040E-1,-1.004925156E1
1.086989544E1,7.525156021E0,5.642166138E-1,-1.208886147E1
1.087968344E1,6.678953171E0,3.654661179E-1,-1.188153553E1
1.088965944E1,6.408771515E0,2.474737167E-1,-1.407380009E1
1.089968744E1,5.961101055E0,1.356096268E-1,-1.270046043E1
1.090979044E1,5.061595440E0,-5.440092087E-1,-3.384294033E0
1.091965244E1,4.303157330E0,-1.331816673E0,1.540363073E0
1.092970744E1,3.683858395E0,-1.826204300E0,3.663237095E0
1.093969444E1,3.469617367E0,-2.150246620E0,4.384102345E0
1.094987944E1,3.434276581E0,-2.902984619E0,4.402888298E0
1.095966344E1,3.276885509E0,-3.781498909E0,4.008206844E0
1.096966644E1,2.874254704E0,-4.486761093E0,3.243395805E0
1.097966244E1,2.015519619E0,-4.521033287E0,2.203434229E0
1.098982544E1,5.467696190E-1,-3.542443275E0,1.036201835E0
1.099994144E1,-8.935804367E-1,-2.148668289E0,4.119068384E-2
1.101024844E1,-1.971018314E0,-9.271717072E-1,-8.193044662E-1
1.101962744E1,-2.354380131E0,-2.798938751E-2,-1.502400756E0
1.103083744E1,-2.570293665E0,6.476874352E-1,-1.808480978E0
1.103963944E1,-2.545158148E0,6.607623100E-1,-1.927844524E0
1.105049744E1,-2.859104156E0,7.385139465E-1,-1.345292926E0
1.105963744E1,-3.051410913E0,7.122840881E-1,-1.248725176E0
1.107049744E1,-3.117809296E0,6.196455956E-1,-8.722206354E-1
1.107994744E1,-3.209812641E0,5.528249741E-1,-1.243780851E-1
1.108969744E1,-3.264714241E0,3.625659943E-1,5.329139233E-1
1.109974544E1,-3.167809963E0,-7.446002960E-2,1.148953676E0
1.110978044E1,-2.924504280E0,-6.984062195E-1,1.776781797E0
1.111967644E1,-2.730824947E0,-1.183053970E0,2.052292585E0
1.112968844E1,-2.511147976E0,-1.409232140E0,2.172162533E0
1.113968044E1,-2.247776270E0,-1.421512604E0,2.185952902E0
1.114966544E1,-2.124825954E0,-1.166795731E0,2.051460981E0
1.115972244E1,-1.917790890E0,-8.015737534E-1,1.835471153E0
1.116966944E1,-1.767375469E0,-3.280849457E-1,1.623071074E0
1.117970644E1,-1.601495504E0,1.782999039E-1,1.351253271E0
1.118974144E1,-1.474961996E0,6.272344589E-1,1.112462640E0
1.119972344E1,-1.476155043E0,1.013293266E0,8.657745719E-1
1.120964944E1,-1.438371420E0,1.287783623E0,6.060440540E-1
1.121969044E1,-1.400021315E0,1.482963562E0,4.089414477E-1
1.122968644E1,-1.426610470E0,1.624198437E0,3.008931875E-1
1.123974244E1,-1.460877180E0,1.676738262E0,1.070692539E-1
1.124964044E1,-1.481850147E0,1.670239925E0,-1.288321614E-1
1.125969044E1,-1.485747814E0,1.626992702E0,-2.948024571E-1
1.126970644E1,-1.471430302E0,1.641602993E0,-4.228805304E-1
1.127981444E1,-1.407726288E0,1.599193573E0,-5.420973301E-1
1.128968944E1,-1.279307842E0,1.507990837E0,-6.596931219E-1
1.129968644E1,-1.198026657E0,1.422179222E0,-7.838105559E-1
1.131001144E1,-1.099641323E0,1.289503098E0,-9.331219792E-1
1.131966344E1,-9.757533073E-1,1.147005558E0,-1.089316130E0
1.132967944E1,-8.013041019E-1,9.730787277E-1,-1.178202152E0
1.133970044E1,-5.927512646E-1,7.774744034E-1,-1.384746432E0
1.134978144E1,-3.491809368E-1,6.239614487E-1,-1.522043586E0
1.135989944E1,-1.110005379E-1,5.303564072E-1,-1.632133007E0
1.136968644E1,1.580815315E-1,4.728021622E-1,-1.777033091E0
1.137970144E1,4.155611992E-1,4.592971802E-1,-1.916722059E0
1.138973544E1,6.455574036E-1,4.981489182E-1,-2.016584158E0
1.139996544E1,8.317394257E-1,5.471830368E-1,-2.054772854E0
1.140981844E1,1.024232864E0,6.195030212E-1,-2.095864058E0
1.141973444E1,1.185186863E0,6.781597137E-1,-2.161233425E0
1.142979044E1,1.327338219E0,6.771650314E-1,-2.336182117E0
1.144267844E1,1.802002907E0,3.448171616E-1,-2.771517754E0
1.145967144E1,2.217450142E0,-1.198673248E-2,-3.058818817E0
1.146969144E1,2.696583748E0,-4.379796982E-1,-3.282023907E0
1.147967344E1,3.201702118E0,-9.690256119E-1,-3.450636387E0
1.148982844E1,3.751797199E0,-1.548736572E0,-3.617513657E0
1.149967544E1,4.327053547E0,-2.192003250E0,-3.752017975E0
1.150967444E1,4.967933655E0,-2.965727806E0,-3.825442791E0
1.151962144E1,5.497310638E0,-3.761839867E0,-3.994617462E0
1.153002044E1,5.575901031E0,-4.209372520E0,-4.096987247E0
1.154007844E1,4.937520504E0,-4.102944374E0,-4.013330460E0
1.154969044E1,4.200421810E0,-3.909584999E0,-3.822744131E0
1.155969444E1,3.584317684E0,-3.737426758E0,-3.579841852E0
1.156964944E1,2.756315708E0,-3.075003624E0,-3.122807503E0
1.158009244E1,1.816631794E0,-2.202741623E0,-2.643799782E0
1.158985044E1,9.976434708E-2,-6.053647995E-1,-1.850689888E0
1.159972144E1,-5.531368256E-1,4.294681549E-2,-1.463293314E0
1.160973244E1,-1.067712069E0,5.311136246E-1,-1.208377481E0
1.161964344E1,-1.501028061E0,9.479885101E-1,-1.066297174E0
1.163041944E1,-1.927228451E0,1.284526348E0,-1.005561113E0
1.163998944E1,-2.633809566E0,1.448558807E0,-9.662684798E-1
1.164975744E1,-3.419690132E0,1.327341557E0,-9.792758226E-1
1.165967244E1,-3.619886398E0,8.264484406E-1,-1.022244692E0
1.166964544E1,-3.688107014E0,4.107189178E-2,-8.679407835E-1
1.167981744E1,-3.785832882E0,-7.677726746E-1,-5.594628453E-1
1.168968844E1,-3.777778625E0,-1.673757553E0,-2.694563866E-1
1.169968844E1,-3.847142935E0,-2.505605698E0,-1.546791196E-1
1.170979244E1,-3.800480127E0,-3.150491714E0,-9.412145615E-2
1.171968444E1,-3.600625515E0,-3.493087769E0,2.026356459E-1
1.172971744E1,-3.535223484E0,-3.320194244E0,4.388332963E-1
1.173966044E1,-3.922696114E0,-2.483037949E0,6.783224344E-1
1.175027444E1,-3.970483780E0,-1.579017639E0,7.149603367E-1
1.175974244E1,-3.563923359E0,-7.454576492E-1,9.018430710E-1
1.176971044E1,-3.194423676E0,9.241771698E-2,7.923340797E-1
1.177970944E1,-3.353113174E0,8.815474510E-1,4.877706766E-1
1.179036444E1,-3.641218424E0,1.611945629E0,1.080553010E-1
1.179986344E1,-3.871753216E0,2.282308578E0,-1.242697239E-3
1.181036644E1,-3.716613293E0,2.742022038E0,2.464636564E-1
1.181963444E1,-3.674262524E0,2.981516361E0,-1.887333393E-1
1.183042044E1,-3.717898607E0,3.254021645E0,-1.342208385E-1
1.183970344E1,-3.685630798E0,3.373071194E0,1.340296865E-1
1.185111244E1,-3.315375328E0,3.217504978E0,5.075082183E-1
1.185973544E1,-2.670952797E0,2.767745972E0,7.065098286E-1
1.187030044E1,-1.877853632E0,2.186252117E0,7.733756304E-1
1.187965644E1,-1.256349802E0,1.668751717E0,2.348229289E-1
1.188968444E1,-1.315978527E0,1.299696922E0,-3.196924925E-1
1.189968444E1,-1.150075436E0,8.728332520E-1,-3.701099157E-1
1.190969744E1,-5.803501606E-1,4.226064682E-1,1.735024452E-1
1.191965544E1,2.688264847E-2,1.634140015E-1,5.823615193E-1
1.192969544E1,1.656827927E-1,3.423004150E-1,9.452572465E-1
1.193974544E1,2.326965332E-2,7.403039932E-1,1.398883104E0
1.194966444E1,3.129973412E-1,7.245416641E-1,1.824344397E0
1.195973244E1,7.038254738E-1,5.540542603E-1,2.014766216E0
1.196980944E1,1.098258972E0,4.924983978E-1,2.072195530E0
1.198056544E1,1.462690830E0,5.508928299E-1,2.023970127E0
1.198968644E1,1.862122536E0,5.822887421E-1,1.856922030E0
1.199967944E1,2.300008297E0,6.393518448E-1,1.484944820E0
1.200970944E1,2.796685219E0,7.698411942E-1,8.137947917E-1
1.201969244E1,4.108491421E0,8.911409378E-1,-1.739334345E0
1.202969344E1,7.016352177E0,7.027673721E-1,-8.500634193E0
1.203972644E1,7.657735825E0,5.052967072E-1,-1.314483166E1
1.204983844E1,4.973036766E0,1.001910210E0,-1.235621834E1
1.205981144E1,4.057626247E0,1.118885517E0,-1.586444759E1
1.206961844E1,4.824219704E0,5.204563141E-1,-1.677839279E1
1.207965344E1,4.766364574E0,1.492872238E-1,-1.250650311E1
1.208965744E1,3.398324966E0,6.230134964E-1,-5.250104427E0
1.209967144E1,2.921697617E0,1.333065033E-1,5.223679543E-1
1.211019144E1,3.405304909E0,-2.697465897E0,4.517734528E0
1.211963544E1,3.357512474E0,-2.714088440E0,4.762969494E0
1.213058044E1,3.478476048E0,-4.943205833E0,4.431727886E0
1.213970644E1,3.463155746E0,-6.017410278E0,3.957570553E0
1.215037444E1,2.908763409E0,-6.274498940E0,3.376879454E0
1.215964444E1,1.587674141E0,-5.331657410E0,2.609602451E0
1.217040344E1,-5.691862106E-2,-3.505330086E0,1.637760758E0
1.217971544E1,-1.613888502E0,-1.569656372E0,6.473532915E-1
1.218967344E1,-2.640504360E0,-8.425331116E-2,-1.821025461E-1
1.219982644E1,-3.082328081E0,8.007326126E-1,-7.459872961E-1
1.220987644E1,-3.363239288E0,1.102626324E0,-9.711433649E-1
1.221964444E1,-3.510380268E0,1.131597996E0,-8.141945601E-1
1.222968844E1,-3.552312374E0,9.164710045E-1,-7.192074060E-1
1.223967844E1,-3.749005556E0,6.202869415E-1,-5.212416053E-1
1.224973644E1,-4.179900169E0,2.751493454E-1,-1.814744473E-1
1.225973944E1,-4.128089428E0,-2.176465988E-1,3.631544113E-1
1.226963044E1,-3.653215408E0,-7.266578674E-1,1.098439932E0
1.227969144E1,-3.176971436E0,-1.143171310E0,1.722395658E0
1.228969744E1,-2.879852772E0,-1.366209030E0,2.114150286E0
1.229970544E1,-2.832524300E0,-1.325212479E0,2.141602516E0
1.230969044E1,-2.451500893E0,-1.291307449E0,1.889500499E0
1.231973744E1,-2.051948071E0,-1.079292297E0,1.698894382E0
1.232971444E1,-1.946977139E0,-6.722946167E-1,1.442837238E0
1.234483144E1,-1.898993015E0,-2.220354080E-1,1.178351760E0
1.235967844E1,-1.551428795E0,4.550905228E-1,5.940297842E-1
1.236962144E1,-1.443960428E0,8.196763992E-1,3.930401206E-1
1.237973044E1,-1.542327166E0,1.199912071E0,9.318274260E-2
1.238966444E1,-1.735661030E0,1.479506016E0,-2.930325270E-1
1.239968344E1,-1.891129255E0,1.669718266E0,-5.960171223E-1
1.241008944E1,-2.011862516E0,1.803723812E0,-7.260352373E-1
1.241969644E1,-2.046607256E0,1.885121822E0,-8.352104425E-1
1.243045844E1,-1.971688747E0,1.836015224E0,-8.934224844E-1
1.243982244E1,-1.787434340E0,1.661023617E0,-9.383733273E-1
1.245072344E1,-1.616642714E0,1.507822037E0,-1.013979554E0
1.245976044E1,-1.512869120E0,1.447399139E0,-1.100345492E0
1.247160644E1,-1.396436691E0,1.428760529E0,-1.164165974E0
1.247970944E1,-1.283929825E0,1.426241398E0,-1.245837212E0
1.249003544E1,-1.075234890E0,1.353365421E0,-1.278164148E0
1.249977244E1,-8.611268997E-1,1.240462780E0,-1.295906782E0
1.250967944E1,-6.098520756E-1,1.089476109E0,-1.342449188E0
1.251963444E1,-3.803818226E-1,9.803037643E-1,-1.404752731E0
1.252975344E1,-1.454849243E-1,9.685168266E-1,-1.439976692E0
1.254023444E1,3.956890106E-2,1.059998035E0,-1.473038435E0
1.254968644E1,2.097392082E-1,1.174723148E0,-1.501957655E0
1.255966644E1,3.699831963E-1,1.295695305E0,-1.512277365E0
1.256963944E1,5.739626884E-1,1.335559845E0,-1.571323395E0
1.258043744E1,7.966723442E-1,1.337493896E0,-1.685219288E0
1.258976644E1,9.816656113E-1,1.338207245E0,-1.839029193E0
1.259971644E1,1.186341763E0,1.290863037E0,-2.014060259E0
1.261063644E1,1.557961941E0,8.585610390E-1,-2.422505379E0
1.261961344E1,1.440830708E0,8.220419884E-1,-2.227389812E0
1.262969544E1,1.811020851E0,3.661069870E-1,-2.457483292E0
1.263971844E1,2.276467323E0,-2.347106934E-1,-2.650087357E0
1.264983444E1,2.797871590E0,-9.107379913E-1,-2.828039646E0
1.265970444E1,4.005105019E0,-2.275868416E0,-3.088180542E0
1.266984844E1,4.567451954E0,-2.791399956E0,-3.223499060E0
1.267967644E1,5.179167747E0,-3.307935715E0,-3.466463804E0
1.268968644E1,5.629618645E0,-3.553859711E0,-3.910041809E0
1.270010844E1,5.733339310E0,-3.587680817E0,-4.206652164E0
1.270975144E1,5.606228352E0,-3.572849274E0,-4.437242508E0
1.271968544E1,5.611013889E0,-3.966820717E0,-4.634385109E0
1.272969944E1,5.456625462E0,-4.463356018E0,-4.436939240E0
1.273972244E1,4.703999519E0,-4.422801018E0,-3.786241770E0
1.274972644E1,3.316021919E0,-3.508084297E0,-2.882819176E0
1.275974844E1,2.044659138E0,-2.436854362E0,-1.938945055E0
1.276963644E1,9.269514084E-1,-1.464154243E0,-1.147875309E0
1.277968644E1,-6.736326218E-2,-6.205873489E-1,-5.340986848E-1
1.278989744E1,-8.490834236E-1,-9.145259857E-2,-1.218120158E-1
1.279968344E1,-1.419427156E0,1.848630905E-1,1.922802031E-1
1.280972544E1,-1.813806534E0,1.955623627E-1,3.947218060E-1
1.281963044E1,-2.076424122E0,8.441734314E-2,5.303547978E-1
1.282967944E1,-2.315768003E0,-1.463575363E-1,6.218360066E-1
1.283984344E1,-2.619475365E0,-4.377746582E-1,6.634575129E-1
1.284965944E1,-2.989087105E0,-7.404556274E-1,6.774287224E-1
1.285993644E1,-3.279661655E0,-1.037838936E0,6.667159200E-1
1.286966444E1,-3.612285614E0,-1.334050179E0,5.708359480E-1
1.287968444E1,-3.831042767E0,-1.591221809E0,5.617252588E-1
1.288969444E1,-3.917957067E0,-1.714212418E0,5.841826200E-1
1.289966444E1,-3.912106514E0,-1.577975273E0,6.589969993E-1
1.290998144E1,-3.703154087E0,-1.137976646E0,7.684794068E-1
1.291993844E1,-3.569291353E0,-4.898386002E-1,8.932608366E-1
1.292971244E1,-3.579447031E0,2.452421188E-1,8.833350539E-1
1.293970144E1,-3.468530178E0,8.992805481E-1,8.057047129E-1
1.294972244E1,-3.475322247E0,1.532963276E0,7.300719619E-1
1.295966044E1,-3.677720547E0,2.111412525E0,5.895487666E-1
1.297043844E1,-3.825176716E0,2.498791695E0,4.686237872E-1
1.297965544E1,-3.835280657E0,2.691210270E0,4.008519650E-1
1.299069944E1,-3.727419853E0,2.774317265E0,3.995063901E-1
1.299994644E1,-3.454061031E0,2.695061684E0,5.427963734E-1
1.300968444E1,-2.954709053E0,2.396741867E0,7.422516346E-1
1.301961744E1,-2.448271751E0,2.018743992E0,9.530836940E-1
1.303038344E1,-2.284327745E0,1.900779247E0,1.035638928E0
1.303970444E1,-2.228312016E0,1.900218964E0,1.199561715E0
1.305059144E1,-2.006751299E0,1.824758053E0,1.414754033E0
1.305965644E1,-1.680827856E0,1.657006264E0,1.597145081E0
1.307060344E1,-1.161993504E0,1.407420635E0,1.669883728E0
1.307970244E1,-5.028986931E-1,1.111532211E0,1.696284771E0
1.308978544E1,1.872439384E-1,8.234748840E-1,1.843054295E0
1.309970344E1,6.531381607E-1,7.240977287E-1,1.833539724E0
1.310979244E1,9.884262085E-1,7.398281097E-1,1.796911240E0
1.311970644E1,1.307761192E0,6.863961220E-1,1.742998600E0
1.312967944E1,1.604228020E0,7.100911140E-1,1.618632078E0
1.314193644E1,2.021701813E0,9.370441437E-1,6.994599700E-1
1.315970144E1,2.247735023E0,1.126885891E0,-9.577989578E-3
1.316965344E1,2.464979649E0,1.296527863E0,-1.126725674E0
1.317968244E1,2.748811722E0,1.389301777E0,-2.569386959E0
1.318973044E1,3.543111801E0,2.316083908E0,-1.089453983E1
1.319969244E1,5.009008884E0,7.119951248E-1,-1.236353493E1
1.320969344E1,2.911038876E0,-3.665781021E-1,-1.176197815E1
1.321965144E1,1.227867126E0,-5.038032532E-1,-1.059163284E1
1.322991344E1,4.122776985E-1,-9.048461914E-3,-8.906927109E0
1.323969944E1,8.349437714E-1,5.204801559E-1,-7.315343857E0
1.324970744E1,1.027619362E0,1.054347992E0,-5.362115860E0
1.325967444E1,1.308771610E0,5.742616653E-1,-3.061537027E0
1.326963044E1,1.976391315E0,-1.073884964E0,-8.464374542E-1
1.327971044E1,2.457625389E0,-2.676013947E0,9.442595243E-1
1.328969544E1,2.511433601E0,-3.775084496E0,2.015122890E0
1.329967744E1,2.392234802E0,-4.593824387E0,2.658331394E0
1.331075744E1,1.923879623E0,-4.961219788E0,3.142425537E0
1.331964144E1,1.155103683E0,-5.145366669E0,3.239281893E0
1.332982844E1,6.327795982E-1,-5.317405701E0,3.317152023E0
1.333971944E1,-2.359824181E-1,-4.965997696E0,3.345124245E0
1.334965644E1,-1.073138714E0,-3.921217918E0,3.381535769E0
1.335978344E1,-2.286986113E0,-2.544769287E0,3.013328075E0
1.337022044E1,-3.251534939E0,-1.329760551E0,2.598995924E0
1.337966944E1,-3.687763691E0,5.351066589E-3,2.203738689E0
1.339005644E1,-3.827298403E0,1.228190422E0,1.305829525E0
1.339983844E1,-4.102192879E0,2.217596531E0,-5.887305140E-1
1.340971144E1,-3.725270271E0,2.429790020E0,-1.152180910E0
1.342002644E1,-2.722338676E0,1.565726280E0,-3.478092551E-1
1.342974244E1,-1.451162338E0,4.527416229E-1,5.850502849E-1
1.343978944E1,-4.592461586E-1,-3.089065552E-1,1.369265914E0
1.344979844E1,4.020237923E-1,-7.605838776E-1,2.054152012E0
1.345968144E1,1.084587097E0,-9.660291672E-1,2.405414104E0
1.346963344E1,1.236665249E0,-8.689651489E-1,2.216216564E0
1.347971444E1,8.991036415E-1,-6.174001694E-1,1.608923912E0
1.349275344E1,5.672669411E-1,-4.194049835E-1,1.107641578E0
1.350985244E1,1.942677498E-1,-1.605110168E-1,5.832558870E-1
1.351965544E1,-3.928661346E-3,4.461956024E-2,5.720767975E-1
1.352972444E1,-1.239805222E-1,3.058576584E-1,4.895902574E-1
1.353994144E1,-3.284964561E-1,6.528825760E-1,3.799614608E-1
1.354965644E1,-5.037188530E-1,9.878458977E-1,3.193862736E-1
1.355999044E1,-6.301972866E-1,1.294948578E0,1.983896494E-1
1.356971044E1,-8.390693665E-1,1.610547543E0,7.218903303E-2
1.357968844E1,-9.516298771E-1,1.809093475E0,-5.499473214E-2
1.358972844E1,-1.145267010E0,2.031838417E0,-1.633434594E-1
1.360018144E1,-1.411027193E0,2.240903854E0,-3.139823675E-1
1.360993544E1,-1.683361769E0,2.352282047E0,-4.983376861E-1
1.361969844E1,-1.882528067E0,2.401987553E0,-5.942881107E-1
1.362967644E1,-2.005130529E0,2.346235752E0,-6.423983574E-1
1.363998844E1,-2.139900923E0,2.210769176E0,-7.037731409E-1
1.364990244E1,-2.196333647E0,1.949794292E0,-7.336935997E-1
1.365972544E1,-2.239654541E0,1.692901134E0,-6.708317995E-1
1.366969244E1,-2.142853975E0,1.387362957E0,-5.362129211E-1
1.367977344E1,-1.905152082E0,1.061020851E0,-4.150941372E-1
1.368969844E1,-1.548752069E0,7.344150543E-1,-3.394646049E-1
1.369970544E1,-1.068816900E0,5.764131546E-1,-3.476496637E-1
1.370968444E1,-4.039201736E-1,6.417493820E-1,-5.087316036E-1
1.371966444E1,2.502708435E-1,8.218832016E-1,-9.142793417E-1
1.372989144E1,1.271914959E0,1.063568115E0,-1.991897464E0
1.373972144E1,1.639661789E0,1.133229733E0,-2.432288647E0
1.374967744E1,1.853156567E0,1.237610817E0,-2.665058136E0
1.375985144E1,1.976281643E0,1.333273888E0,-2.748313189E0
1.376982344E1,2.055300236E0,1.275201797E0,-2.745246410E0
1.377967444E1,2.076214790E0,1.143177509E0,-2.598093987E0
1.378977044E1,1.935297489E0,8.585395813E-1,-2.320028305E0
1.379976844E1,1.807267666E0,5.403919220E-1,-2.010715723E0
1.380974744E1,1.826841831E0,1.873264313E-1,-1.790789247E0
1.381964844E1,2.093792915E0,-1.880855560E-1,-1.754780412E0
1.382972544E1,2.498955727E0,-5.086927414E-1,-1.794889569E0
1.383971244E1,2.945930958E0,-8.768377304E-1,-1.807522893E0
1.384975044E1,3.302586555E0,-1.164626122E0,-1.725503922E0
1.385967544E1,3.645489216E0,-1.436491966E0,-1.691098928E0
1.386962344E1,3.965489864E0,-1.630371094E0,-1.710882187E0
1.387966144E1,4.285264492E0,-1.791015625E0,-1.871015429E0
1.388972944E1,4.774036407E0,-2.265243530E0,-1.628829360E0
1.389983844E1,5.184243202E0,-2.862255096E0,-9.224562049E-1
1.390978244E1,5.207257271E0,-3.161455154E0,-6.162210703E-1
1.391974144E1,4.670802116E0,-3.015129089E0,-5.429185629E-1
1.392999344E1,3.837154865E0,-2.662729263E0,-6.430126429E-1
1.393974044E1,2.865619659E0,-2.175585747E0,-7.122095823E-1
1.394968544E1,1.716803074E0,-1.466482162E0,-7.710452080E-1
1.395976744E1,8.182129860E-1,-1.002478600E0,-7.231886387E-1
1.396975644E1,1.304116249E-1,-7.662572861E-1,-6.870908737E-1
1.397971244E1,-5.022709370E-1,-6.323680878E-1,-5.305980444E-1
1.398970644E1,-1.236224174E0,-3.309421539E-1,-3.013140559E-1
1.399966844E1,-2.157581329E0,9.501743317E-2,-3.037112951E-2
1.401054244E1,-2.557047367E0,2.240619659E-1,2.457598746E-1
1.401969644E1,-3.034218788E0,3.212747574E-1,4.921300411E-1
1.403048844E1,-3.848259449E0,4.124631882E-1,7.328519225E-1
1.403969444E1,-4.326351166E0,5.846691132E-2,8.414660692E-1
1.405051044E1,-4.363287926E0,-7.905855179E-1,1.112768888E0
1.405967544E1,-4.283176899E0,-1.471707344E0,1.047916293E0
1.407027944E1,-4.516305447E0,-1.826678276E0,1.041852951E0
1.407966944E1,-4.085280418E0,-2.297501564E0,1.130759954E0
1.409076244E1,-3.226345539E0,-2.297430992E0,9.291571975E-1
1.409971544E1,-2.917562485E0,-1.523824692E0,4.612830281E-1
1.411028844E1,-2.687601089E0,-7.251415253E-1,6.286656857E-2
1.411962044E1,-2.453909874E0,-2.449417114E-2,-3.588608503E-1
1.413080444E1,-2.547788620E0,5.725421906E-1,-1.032663822E0
1.413969144E1,-2.675453663E0,1.029360294E0,-2.094545841E0
1.415063944E1,-2.355529785E0,1.541295052E0,-2.192010403E0
1.415971844E1,-2.256273746E0,2.059563160E0,-2.200932026E0
1.417062644E1,-1.938890696E0,2.364572525E0,-2.022131205E0
1.417994344E1,-2.042593002E0,2.651742935E0,-1.863277555E0
1.419082444E1,-2.779879570E0,3.026290417E0,-1.715333939E0
1.419968144E1,-3.246320248E0,3.188216686E0,-1.573661089E0
1.421100744E1,-2.384128332E0,2.202709198E0,-8.257880211E-1
1.421966944E1,-2.354756117E0,2.202727318E0,-7.665503025E-1
1.423030444E1,-1.895186663E0,1.846662998E0,-2.034382820E-1
1.423970944E1,-1.739244461E0,1.715874672E0,-2.037398815E-1
1.425069544E1,-1.473310232E0,1.526267052E0,4.396328926E-1
1.425995244E1,-1.376954079E0,1.321086407E0,7.642565966E-1
1.427083044E1,-1.141513586E0,1.180696964E0,1.347867727E0
1.427970044E1,-8.165442944E-1,1.074466228E0,1.913854003E0
1.429016944E1,-4.808850288E-1,1.024233818E0,2.277659178E0
1.429973144E1,-1.660685539E-1,1.048096657E0,2.596885920E0
1.431069944E1,2.620959282E-1,1.038980484E0,2.941035986E0
1.431971444E1,5.531716347E-1,1.231719494E0,2.890772343E0
1.433065044E1,7.872996330E-1,1.412272453E0,2.916186333E0
1.433969544E1,1.202757359E0,1.376672745E0,2.718892574E0
1.435049544E1,1.866929531E0,1.129526138E0,2.451815128E0
1.435968144E1,2.666595936E0,1.093459129E0,1.715097666E0
1.437063944E1,3.495563030E0,1.122228622E0,6.681954861E-2
1.438002944E1,4.468448639E0,1.147627354E0,-2.468528271E0
1.438986744E1,6.036378860E0,8.565788269E-1,-6.466330051E0
1.439970944E1,6.141952991E0,-4.788684845E-2,-9.650899887E0
1.441055744E1,3.691268921E0,-8.581285477E-1,-1.089498138E1
1.441971844E1,1.865803242E0,-1.544190407E0,-1.199458885E1
1.443045644E1,1.397952080E0,-1.759269714E0,-1.268922043E1
1.443968344E1,1.911191463E0,-6.067295074E-1,-1.257040691E1
1.445071144E1,1.398627758E0,9.985008240E-1,-1.086132336E1
1.445979944E1,1.196155071E0,8.521466255E-1,-7.016147137E0
1.447073844E1,1.849684715E0,-8.520088196E-1,-3.396026134E0
1.447972344E1,2.695737839E0,-2.925531387E0,-3.034293652E-1
1.448973444E1,2.750392437E0,-4.211325645E0,2.433905363E0
1.449973944E1,2.233156204E0,-5.028144836E0,4.061812878E0
1.450970344E1,1.762009621E0,-5.573182106E0,4.905956745E0
1.451966144E1,1.316041946E0,-5.868578911E0,5.388251305E0
1.452975844E1,9.457907677E-1,-5.704560280E0,5.292350769E0
1.453971444E1,1.990942955E-1,-4.513729095E0,5.169243813E0
1.454968844E1,-1.230142832E0,-2.658115387E0,4.588995934E0
1.455977144E1,-2.067162752E0,-1.199318886E0,3.970030069E0
1.456969644E1,-2.640492201E0,2.185468674E-1,3.590905190E0
1.457969244E1,-2.775757551E0,1.299808979E0,3.350081921E0
1.458973244E1,-2.881999969E0,2.158786774E0,2.774794579E0
1.459975744E1,-2.950588703E0,2.478058338E0,2.317827463E0
1.460980244E1,-2.648235798E0,2.114909172E0,2.138699055E0
1.461967544E1,-1.929315090E0,1.273087025E0,1.876530886E0
1.462969244E1,-1.182350159E0,4.879598618E-1,1.905440211E0
1.463973744E1,-5.353746414E-1,-2.055740356E-2,1.993496180E0
1.464967644E1,-9.496402740E-2,-4.170312881E-1,2.003059387E0
1.465971244E1,4.839897156E-2,-7.624254227E-1,1.979054451E0
1.466973244E1,9.692525864E-2,-1.175882339E0,1.882608891E0
1.467968944E1,2.852773666E-2,-1.532398224E0,1.664986134E0
1.468969444E1,-1.429753304E-1,-1.639115334E0,1.385611534E0
1.469966244E1,-4.901728630E-1,-1.409823418E0,1.127382636E0
1.471007344E1,-8.998358250E-1,-9.582538605E-1,8.120809793E-1
1.471973544E1,-1.051593542E0,-5.558776855E-1,4.486526847E-1
1.472987244E1,-1.240856886E0,-1.488161087E-1,2.227069736E-1
1.473978644E1,-1.476085901E0,3.021888733E-1,-5.770403147E-2
1.475006444E1,-1.732973337E0,8.224377632E-1,-3.575952649E-1
1.475971344E1,-1.988823414E0,1.348834515E0,-5.745212436E-1
1.476975444E1,-2.153397322E0,1.829969883E0,-7.331552505E-1
1.477966544E1,-2.260685682E0,2.217879295E0,-8.738526106E-1
1.478987044E1,-2.251818419E0,2.446022034E0,-9.713040590E-1
1.479982844E1,-2.089789867E0,2.472908497E0,-1.279472351E0
1.480975244E1,-2.011256218E0,2.332898140E0,-1.437873006E0
1.482000044E1,-1.872291565E0,2.124411583E0,-1.591726303E0
1.482985544E1,-1.662055731E0,1.838713169E0,-1.744198680E0
1.483980244E1,-1.427490950E0,1.569971085E0,-1.858616114E0
1.484969144E1,-1.200863361E0,1.406459808E0,-1.975830674E0
1.485989544E1,-7.899706364E-1,1.371474266E0,-2.168129206E0
1.486987944E1,-1.740093231E-1,1.246052265E0,-2.361633778E0
1.487967244E1,3.912448883E-1,1.206372261E0,-2.514043808E0
1.488968244E1,8.836522102E-1,1.249761581E0,-2.434526682E0
1.489993244E1,1.235207081E0,1.282330513E0,-1.892832637E0
1.490975044E1,1.506093025E0,1.316086292E0,-1.458400369E0
1.491982044E1,1.754262447E0,1.371055126E0,-1.144856334E0
1.492978944E1,1.957235813E0,1.436150551E0,-9.556862116E-1
1.493993944E1,2.024709702E0,1.557858467E0,-8.611574173E-1
1.494985844E1,2.043046474E0,1.701029778E0,-9.092184901E-1
1.496043044E1,2.076581955E0,1.734592915E0,-1.063719392E0
1.496976544E1,2.228616238E0,1.472722530E0,-1.176142812E0
1.497972144E1,2.273057938E0,1.033217430E0,-9.422639012E-1
1.498975044E1,2.143184662E0,8.489532471E-1,-5.790185928E-1
1.499972344E1,2.168335438E0,5.155124664E-1,-5.540109873E-1
1.501000644E1,2.444491386E0,1.008787155E-1,-7.026199102E-1
1.501970844E1,2.894515038E0,-3.870468140E-1,-9.571943879E-1
1.502974644E1,3.430685520E0,-9.566650391E-1,-1.300647736E0
1.503979644E1,3.961170197E0,-1.530717850E0,-1.908385754E0
1.504964644E1,4.317553043E0,-2.141731262E0,-2.231269598E0
1.505965744E1,4.410622597E0,-2.611528397E0,-1.703204393E0
1.506976444E1,4.574175835E0,-3.027781487E0,-1.234791398E0
1.507978044E1,4.882412434E0,-3.724279404E0,-1.111301899E0
1.508974744E1,4.922453880E0,-4.092924118E0,-1.036748409E0
1.509969644E1,4.303838730E0,-3.768533707E0,-1.076306462E0
1.511110944E1,3.456809998E0,-3.199561119E0,-1.274098754E0
1.511971844E1,2.293369293E0,-2.282094002E0,-1.050317526E0
1.512969944E1,1.028748512E0,-1.259944916E0,-9.112812877E-1
1.513969044E1,1.319618225E-1,-7.405767441E-1,-9.009925723E-1
1.514976344E1,-5.515909195E-1,-6.451206207E-1,-8.607926965E-1
1.516047744E1,-1.249027729E0,-5.670814514E-1,-7.206676006E-1
1.516987044E1,-2.101591825E0,-4.151887894E-1,-4.986217320E-1
1.517974144E1,-3.095741272E0,-1.844282150E-1,-2.509375811E-1
1.518991244E1,-3.776032448E0,-1.561059952E-1,-4.370355606E-2
1.519974244E1,-4.233548164E0,-2.686538696E-1,1.204770207E-1
1.520965144E1,-4.624454498E0,-6.052742004E-1,4.585457444E-1
1.521972044E1,-4.767086506E0,-1.167723656E0,1.026309371E0
1.522965744E1,-4.493844509E0,-1.808029175E0,1.257590175E0
1.523987544E1,-4.091700554E0,-2.324244499E0,1.701169252E0
1.524973144E1,-3.515626907E0,-2.508600235E0,1.580689788E0
1.525969544E1,-3.215776682E0,-2.077201843E0,1.098399639E0
1.526963944E1,-2.866981030E0,-1.606051445E0,7.068927884E-1
1.527983344E1,-2.431277752E0,-1.283869743E0,3.760766983E-1
1.528985944E1,-2.311632395E0,-1.154695511E0,-3.222678900E-1
1.529997744E1,-2.510387182E0,-7.207965851E-1,-1.367916346E0
1.531063544E1,-2.122949123E0,7.962031364E-1,-1.579540133E0
1.531979444E1,-2.112273216E0,7.952952385E-1,-1.548497915E0
1.532968144E1,-1.978255749E0,1.471092224E0,-1.575409889E0
1.533969544E1,-1.638005257E0,2.349854469E0,-1.847484827E0
1.534975244E1,-2.373792648E0,2.934309483E0,-2.046800137E0
1.536025644E1,-2.843103886E0,3.275647163E0,-1.689399719E0
1.536994944E1,-2.815596819E0,3.054373264E0,-1.343833923E0
1.537970644E1,-2.531543970E0,2.715360641E0,-5.057599545E-1
1.538971844E1,-2.193406343E0,2.412732601E0,1.415722370E-1
1.539970044E1,-2.131067753E0,2.194733143E0,6.176052094E-1
1.540974744E1,-2.141725779E0,1.979927540E0,1.175660014E0
1.541968044E1,-1.924144030E0,1.627392292E0,1.654397488E0
1.542967744E1,-1.542404413E0,1.232425690E0,2.024488688E0
1.543989844E1,-1.181042910E0,9.774398804E-1,2.177205563E0
1.544977344E1,-9.022190571E-1,9.076170921E-1,2.295108318E0
1.545971444E1,-4.779543877E-1,7.427692413E-1,2.493298054E0
1.546966344E1,1.794338226E-2,6.403045654E-1,2.610401630E0
1.547983644E1,3.456645012E-1,6.887922287E-1,2.809175491E0
1.548971644E1,7.772226334E-1,6.540155411E-1,2.903504372E0
1.549970644E1,1.293565273E0,6.103882790E-1,2.933634758E0
1.551024844E1,1.699397564E0,6.596312523E-1,2.687603712E0
1.551970644E1,2.015235424E0,7.796263695E-1,2.319163799E0
1.552989044E1,2.181492805E0,1.051127911E0,1.989247322E0
1.553975344E1,2.345418453E0,1.305787086E0,1.649994850E0
1.554970444E1,2.703217030E0,2.043580532E0,-1.295481920E-1
1.556041844E1,3.544785023E0,2.376644611E0,-2.590929985E0
1.556970444E1,5.251990795E0,2.219805717E0,-6.344124794E0
1.557971044E1,7.039549351E0,9.738903046E-1,-1.086020756E1
1.558968644E1,4.973828793E0,-2.970933914E-1,-1.164905262E1
1.559968944E1,2.336576939E0,-1.130560875E0,-9.634939194E0
1.561089244E1,9.756159782E-1,-1.094079018E0,-8.008212090E0
1.561972544E1,4.239988327E-1,-5.693616867E-1,-6.636442661E0
1.562971944E1,8.724431992E-1,-2.218418121E-1,-5.071135521E0
1.563973444E1,1.836733341E0,-3.067560196E-1,-3.250413656E0
1.564977344E1,2.594137192E0,-1.191780090E0,-1.229882121E0
1.565969544E1,2.796478271E0,-2.096305847E0,5.297872424E-1
1.566969144E1,2.451039791E0,-2.620841980E0,1.730392337E0
1.567967144E1,2.141125679E0,-3.208149910E0,2.358275414E0
1.568970444E1,2.069471836E0,-3.803835869E0,2.770969391E0
1.569967344E1,1.878159046E0,-4.220383644E0,2.954879761E0
1.570964244E1,1.574105740E0,-4.509761810E0,2.774013042E0
1.571972244E1,9.768962860E-1,-4.547374725E0,2.510612726E0
1.572986244E1,-3.460197449E-1,-4.155697823E0,1.820723772E0
1.573970244E1,-2.176659107E0,-3.258422852E0,3.026858568E-1
1.575043344E1,-3.757062674E0,-1.714112282E0,-6.612964869E-1
1.575968444E1,-4.295998573E0,-2.342910767E-1,-8.709814548E-1
1.577044344E1,-3.977474213E0,8.099689484E-1,-5.174065232E-1
1.577977144E1,-3.307038784E0,1.323853970E0,-2.428337336E-1
1.578980644E1,-2.819283247E0,1.557572365E0,-1.265273690E-1
1.579969844E1,-2.459711790E0,1.630646706E0,-4.068684578E-2
1.581131644E1,-1.812934399E0,1.334121227E0,7.651000023E-1
1.581967744E1,-1.804964542E0,1.337076664E0,7.865946293E-1
1.582968444E1,-1.036845922E0,6.950645447E-1,1.349631310E0
1.583971144E1,-3.330698013E-1,-5.463123322E-2,1.794954538E0
1.584967044E1,-9.665012360E-3,-6.936540604E-1,2.043022156E0
1.585965144E1,3.156709671E-2,-1.096356392E0,2.149420977E0
1.586964344E1,-6.661415100E-2,-1.244587898E0,2.116446733E0
1.587965244E1,-4.089045525E-1,-1.005716324E0,1.842803478E0
1.589008244E1,-6.920351982E-1,-6.624202728E-1,1.589154243E0
1.589972044E1,-7.770175934E-1,-3.654508591E-1,1.367111444E0
1.590985344E1,-9.187445641E-1,-3.342151642E-2,1.115751147E0
1.591968444E1,-1.140319586E0,3.027687073E-1,8.506553173E-1
1.593016344E1,-1.381950378E0,6.791267395E-1,5.020037889E-1
1.593974944E1,-1.541563272E0,1.000321388E0,2.039016783E-1
1.594968744E1,-1.763297081E0,1.361660004E0,4.245400429E-3
1.595993044E1,-1.948921919E0,1.669651985E0,-1.491839886E-1
1.596976644E1,-2.031746626E0,1.798544884E0,-2.632089853E-1
1.597989944E1,-2.044867992E0,1.818550587E0,-4.194575548E-1
1.598970744E1,-2.007597923E0,1.729768276E0,-6.006996632E-1
1.599969644E1,-1.950706244E0,1.543386936E0,-8.366209269E-1
1.600977044E1,-1.789979935E0,1.299264908E0,-1.026011229E0
1.601969644E1,-1.506046772E0,1.014343739E0,-1.199855804E0
1.602968244E1,-1.206982136E0,7.404198647E-1,-1.331384778E0
1.603967944E1,-9.572534561E-1,5.769109726E-1,-1.502139330E0
1.604972344E1,-6.738934517E-1,6.657438278E-1,-1.709597945E0
1.605972944E1,-3.869938850E-1,8.648815155E-1,-1.927356958E0
1.606967044E1,-8.589792252E-2,1.081550121E0,-2.193140984E0
1.607968244E1,3.157944679E-1,1.266825676E0,-2.420603752E0
1.608967244E1,6.940164566E-1,1.407200336E0,-2.635596275E0
1.610010244E1,9.969806671E-1,1.533110619E0,-2.725657940E0
1.611004944E1,1.312302113E0,1.615986824E0,-2.666867733E0
1.611973644E1,1.495809078E0,1.579745293E0,-2.080160379E0
1.612976644E1,1.764303207E0,1.505262852E0,-1.735244989E0
1.613973144E1,1.989183426E0,1.373316765E0,-1.533181071E0
1.614975144E1,2.051974297E0,1.301841259E0,-1.383635163E0
1.616015344E1,1.951789379E0,1.389210224E0,-1.195392847E0
1.616981144E1,1.743288994E0,1.489217281E0,-1.052628040E0
1.617965244E1,1.564252853E0,1.413955688E0,-1.052521706E0
1.618996444E1,1.388779163E0,1.177426815E0,-1.074270487E0
1.619968244E1,1.340934277E0,7.860641479E-1,-1.129559994E0
1.620965144E1,1.481725216E0,2.603349686E-1,-1.147674799E0
1.621964344E1,1.747577667E0,-3.256464005E-1,-1.157777786E0
1.622970544E1,2.133934021E0,-8.083190918E-1,-1.126768827E0
1.624035544E1,2.543267250E0,-1.193612099E0,-1.146024227E0
1.624968144E1,2.898762226E0,-1.485035896E0,-1.348682523E0
1.625969544E1,3.242952824E0,-1.757290840E0,-1.681931496E0
1.626962744E1,3.608834743E0,-2.221618652E0,-1.420688152E0
1.627969144E1,3.837437153E0,-2.637928009E0,-8.033300638E-1
1.628980444E1,3.932962418E0,-3.004712105E0,-5.290244222E-1
1.629984044E1,3.807611942E0,-3.207584381E0,-6.434785724E-1
1.631046444E1,3.450044155E0,-3.188138962E0,-9.751514196E-1
1.631971444E1,2.977028847E0,-2.982928276E0,-1.448535204E0
1.632969144E1,2.293159008E0,-2.545498848E0,-1.499806046E0
1.633981944E1,1.355383873E0,-1.837080002E0,-1.390111685E0
1.634971944E1,4.127283096E-1,-1.109640121E0,-1.083289146E0
1.636134344E1,-1.059834003E0,-1.265478134E-1,-7.572685480E-1
1.637012844E1,-1.073707581E0,-1.394147873E-1,-6.496264935E-1
1.637968544E1,-1.703087807E0,1.362228394E-1,-4.191045165E-1
1.638974544E1,-2.256942511E0,3.277921677E-1,-1.139087081E-1
1.639984044E1,-2.674094915E0,4.249830246E-1,2.225385904E-1
1.641220344E1,-3.392341852E0,4.354572296E-1,7.644418478E-1
1.642973844E1,-3.763720512E0,-3.008346558E-1,1.441984534E0
1.643970244E1,-3.614112854E0,-9.760751724E-1,1.740937710E0
1.644985944E1,-3.293020248E0,-1.638183594E0,1.871128798E0
1.645967444E1,-2.920215130E0,-2.159185410E0,2.134008884E0
1.646972844E1,-2.494177341E0,-2.403986931E0,2.279903650E0
1.647969044E1,-2.087993145E0,-2.103788376E0,2.323364019E0
1.648972844E1,-1.554744005E0,-1.715801239E0,1.922479033E0
1.649971344E1,-1.244200945E0,-1.116055489E0,1.118249416E0
1.650972544E1,-1.620073080E0,-1.022078514E0,3.425538540E-1
1.651967844E1,-1.800806046E0,-8.408193588E-1,-1.345532060E0
1.652969944E1,-1.491332054E0,-1.611070633E-1,-1.651189566E0
1.653977444E1,-1.430092573E0,7.432498932E-1,-1.833039045E0
1.654977444E1,-1.380920887E0,1.623611450E0,-2.121188402E0
1.656134944E1,-1.229502678E0,2.159933567E0,-2.397716999E0
1.656964944E1,-2.219696760E0,2.846247673E0,-2.504042625E0
1.657993544E1,-2.520344019E0,3.209148884E0,-2.399211884E0
1.658971944E1,-2.392108917E0,3.042020321E0,-2.022640467E0
1.659980744E1,-1.985281706E0,2.610873699E0,-1.331657171E0
1.660982744E1,-1.776659012E0,2.484778404E0,-6.920146942E-1
1.661966744E1,-2.013478518E0,2.422443867E0,-2.373566628E-1
1.662989344E1,-2.199867964E0,2.288996220E0,3.186912537E-1
1.664007544E1,-1.715022087E0,1.478513718E0,8.621381521E-1
1.664973044E1,-2.096747398E0,1.480483532E0,1.670214057E0
1.666039044E1,-1.731303930E0,1.051915646E0,1.995328546E0
1.666975544E1,-1.608511686E0,9.123969078E-1,2.490336657E0
1.667973044E1,-1.404261112E0,7.905955315E-1,2.820548773E0
1.668972744E1,-1.078999758E0,7.520227432E-1,2.931006432E0
1.669975544E1,-6.679601669E-1,6.808047295E-1,3.047672749E0
1.671023844E1,-2.088661194E-1,6.843576431E-1,3.146674633E0
1.671969244E1,2.579565048E-1,7.558665276E-1,3.057106256E0
1.672968844E1,7.357940674E-1,8.134689331E-1,2.869433880E0
1.673970844E1,1.216627598E0,8.147482872E-1,2.655681610E0
1.674975744E1,1.704529285E0,8.161249161E-1,2.484783888E0
1.675969044E1,2.138576031E0,8.195400238E-1,2.343466043E0
1.676964844E1,2.546915531E0,8.731570244E-1,2.014220238E0
1.677966044E1,3.204141140E0,1.494391441E0,-2.882297039E-1
1.678986644E1,4.267582417E0,1.797111034E0,-3.158843040E0
1.679986844E1,6.006876945E0,1.612244129E0,-6.254800320E0
1.680969644E1,8.045737267E0,1.070644379E0,-1.039552975E1
1.681968544E1,6.949287891E0,6.972131729E-1,-1.151314545E1
1.682978544E1,3.255285740E0,1.214617729E0,-7.535201550E0
1.683990144E1,2.355646610E0,1.302570820E0,-6.094577312E0
1.684979044E1,2.810980320E0,8.376855850E-1,-4.747146606E0
1.686025744E1,3.241300583E0,5.432128906E-2,-2.367422581E0
1.686982144E1,3.239807606E0,-8.109846115E-1,4.569239616E-1
1.687989644E1,3.429259777E0,-1.604910851E0,2.151322126E0
1.688976544E1,3.797568321E0,-2.338516235E0,2.942778111E0
1.689978544E1,3.924653530E0,-2.693780899E0,3.132381439E0
1.690968644E1,3.706550121E0,-2.732446671E0,3.173657894E0
1.691974644E1,3.426049709E0,-2.832377434E0,3.214169979E0
1.692992144E1,3.145648003E0,-3.071169853E0,3.171060801E0
1.693975644E1,2.889043331E0,-3.453087807E0,2.584671021E0
1.694974344E1,1.434298038E0,-3.812050819E0,1.190663218E0
1.695985744E1,-4.856319427E-1,-3.246189117E0,-1.272813439E0
1.696972744E1,-2.320621967E0,-1.655855179E0,-1.154805422E0
1.697979744E1,-2.997029781E0,-6.577129364E-1,-3.390238285E-1
1.698986844E1,-2.870857716E0,-3.380384445E-1,-6.950139999E-2
1.699975744E1,-2.462396145E0,-4.096984863E-2,-2.491638660E-1
1.700970744E1,-1.949159622E0,4.145555496E-1,-2.701320648E-1
1.701966644E1,-2.014715433E0,1.285634518E0,-6.722235680E-2
1.702966044E1,-2.348152876E0,2.209633827E0,1.026858687E-1
1.703980144E1,-2.336137295E0,2.628120899E0,2.661316097E-1
1.704996344E1,-2.007743120E0,2.259820461E0,5.253273249E-1
1.705970444E1,-1.329319954E0,1.229497910E0,9.482809305E-1
1.706970844E1,-7.012705803E-1,1.106014252E-1,1.497644424E0
1.707969944E1,-4.791455269E-1,-6.673755646E-1,1.959250689E0
1.708975044E1,-4.468803406E-1,-1.097248077E0,2.209873199E0
1.709972144E1,-4.947662354E-1,-1.342848778E0,2.270550251E0
1.710974844E1,-7.355990410E-1,-1.315919876E0,2.220488787E0
1.711966244E1,-1.124127388E0,-1.043535233E0,2.045961618E0
1.712966844E1,-1.447590113E0,-6.552028656E-1,1.839630604E0
1.713968344E1,-1.748189211E0,-1.899023056E-1,1.608829856E0
1.714977944E1,-1.962689638E0,1.904964447E-1,1.279960871E0
1.716041344E1,-2.011640072E0,5.109767914E-1,9.790858626E-1
1.716976744E1,-2.088100195E0,8.134694099E-1,6.858633757E-1
1.717969144E1,-2.213103771E0,1.082540035E0,4.082102180E-1
1.718984644E1,-2.324829102E0,1.260159016E0,1.362725198E-1
1.719981744E1,-2.343836546E0,1.327692986E0,-8.337095380E-2
1.720970044E1,-2.282148600E0,1.321249485E0,-2.116255760E-1
1.721965544E1,-2.351701260E0,1.327204227E0,-2.794371247E-1
1.722965944E1,-2.382520199E0,1.292429447E0,-3.144885600E-1
1.723970944E1,-2.267793894E0,1.139349461E0,-3.660720289E-1
1.724987744E1,-2.073532820E0,9.768862724E-1,-4.142004251E-1
1.725989644E1,-1.911993980E0,8.261122704E-1,-4.827058017E-1
1.726968844E1,-1.772266388E0,7.002491951E-1,-5.155062675E-1
1.727968644E1,-1.555741787E0,5.593633652E-1,-6.064941287E-1
1.728969344E1,-1.259916782E0,4.447422028E-1,-7.798632979E-1
1.729991744E1,-8.898460865E-1,4.052743912E-1,-9.551655054E-1
1.730996844E1,-4.638531208E-1,4.557113647E-1,-1.186020136E0
1.731968744E1,5.507230759E-2,5.115537643E-1,-1.515968084E0
1.732970444E1,5.285696983E-1,6.197137833E-1,-1.971951246E0
1.733975644E1,8.353772163E-1,8.223977089E-1,-2.550580025E0
1.734973544E1,1.091748714E0,1.001817703E0,-3.123867989E0
1.735970444E1,1.322444439E0,9.970331192E-1,-3.461516857E0
1.736984444E1,1.460575581E0,8.636412621E-1,-3.580645561E0
1.737967844E1,1.530533314E0,6.703729630E-1,-3.577324867E0
1.738968544E1,1.512554169E0,4.785108566E-1,-3.517149448E0
1.739966444E1,1.421071053E0,3.580541611E-1,-3.373501301E0
1.740992044E1,1.393066883E0,2.635564804E-1,-3.205172777E0
1.741973144E1,1.648009777E0,9.488773346E-2,-3.004834890E0
1.742965044E1,2.145985603E0,-7.223701477E-2,-2.888449430E0
1.743996844E1,2.748764992E0,-4.306049347E-1,-2.747881413E0
1.744967844E1,3.381666660E0,-9.868087769E-1,-2.632200480E0
1.745966444E1,4.029472828E0,-1.626258850E0,-2.584599257E0
1.746965244E1,4.486329079E0,-2.229147911E0,-3.080626249E0
1.747967344E1,4.594213486E0,-2.719376564E0,-2.274857998E0
1.748986144E1,4.382242680E0,-3.319343567E0,-1.522536397E0
1.749973144E1,4.270528793E0,-3.704159737E0,-1.355054498E0
1.750967044E1,3.934287548E0,-3.877153397E0,-1.415309906E0
1.751967444E1,3.349002361E0,-3.689058304E0,-1.576953053E0
1.752971144E1,2.281230450E0,-2.833004951E0,-1.571900368E0
1.753972744E1,1.058589458E0,-1.738828659E0,-1.184225559E0
1.754985544E1,1.069703102E-1,-9.610118866E-1,-9.902864695E-1
1.755980844E1,-6.557672024E-1,-4.693632126E-1,-9.311153293E-1
1.756965644E1,-1.170722008E0,-3.288717270E-1,-8.725737333E-1
1.757984644E1,-1.686751842E0,-2.412700653E-1,-6.052987576E-1
1.758976944E1,-2.297062159E0,-2.555656433E-2,-2.423790395E-1
1.759969544E1,-2.892499685E0,1.900739670E-1,1.496481299E-1
1.760971244E1,-3.360104561E0,4.249172211E-1,4.941588938E-1
1.761967644E1,-3.692469597E0,5.867381096E-1,7.718196511E-1
1.762968044E1,-4.029822350E0,4.395389557E-1,1.177443981E0
1.763974344E1,-4.381220818E0,-7.052612305E-2,1.445797920E0
1.765007544E1,-4.133010387E0,-9.662771225E-1,1.642663836E0
1.765969544E1,-3.810171127E0,-1.824866295E0,1.670699835E0
1.766972144E1,-3.603646517E0,-2.442761421E0,2.226823807E0
1.767968644E1,-3.277167797E0,-2.761518478E0,2.937952518E0
1.768969144E1,-3.156638622E0,-2.468851089E0,3.222558498E0
1.769970444E1,-2.977298737E0,-1.939956665E0,3.180602312E0
1.770968944E1,-2.906173706E0,-1.241144180E0,2.516210079E0
1.771966244E1,-2.883960247E0,-4.895057678E-1,1.729607344E0
1.772976444E1,-3.063286304E0,3.171596527E-1,1.155111670E0
1.773974144E1,-3.030060291E0,9.328775406E-1,8.423182964E-1
1.774967244E1,-2.795390606E0,1.392819405E0,6.491034031E-1
1.775968944E1,-2.491340637E0,1.897936821E0,4.804040194E-1
1.776986744E1,-2.258873224E0,2.295816422E0,6.219360828E-1
1.777986644E1,-1.715207577E0,2.370249271E0,5.587707758E-1
1.778998144E1,-1.016764164E0,2.241406441E0,-3.281629086E-2
1.779968844E1,-6.529905796E-1,2.215559006E0,-1.084299803E0
1.780999144E1,-5.721137524E-1,2.489521503E0,-2.148392677E0
1.781970644E1,-4.314508438E-1,2.713745117E0,-3.111441612E0
1.782981044E1,-5.268480778E-1,2.895705223E0,-3.737480164E0
1.783970144E1,-2.400503159E-1,2.921386719E0,-3.305665970E0
1.784967744E1,-1.332626343E-1,2.765295029E0,-2.127658606E0
1.786129644E1,-2.663259506E-1,2.581043243E0,-7.848129272E-1
1.786964544E1,-4.672467709E-1,2.321271896E0,4.616734982E-1
1.787967344E1,-4.402356148E-1,1.941197395E0,1.436035872E0
1.788967044E1,-2.319307327E-1,1.607545376E0,2.103086472E0
1.789972144E1,-2.591180801E-2,1.316891670E0,2.542999268E0
1.791090944E1,3.128929138E-1,1.011627197E0,2.867910385E0
1.791969544E1,7.282738686E-1,7.597756386E-1,2.971905708E0
1.792972944E1,9.105896950E-1,8.264660835E-1,2.956991673E0
1.793972044E1,1.074224472E0,9.946084023E-1,2.807003498E0
1.794969044E1,1.340213776E0,1.074618340E0,2.609050751E0
1.795966444E1,1.796556950E0,1.328104019E0,1.820095420E0
1.796979444E1,2.562016487E0,1.531482220E0,-1.700615883E-2
1.797981044E1,3.907932281E0,1.150440693E0,-2.552791119E0
1.798969844E1,5.935675144E0,-4.670143127E-3,-6.889880180E0
1.799983244E1,5.348144054E0,-6.937170029E-1,-1.096315479E1
1.800994444E1,2.837847233E0,-9.114904404E-1,-1.140170860E1
1.801968244E1,1.251751900E0,-8.256759644E-1,-9.706301689E0
1.802965044E1,1.390471935E0,3.778457642E-3,-7.397543907E0
1.803973844E1,1.681305408E0,8.995914459E-2,-4.711225033E0
1.804963944E1,2.320384502E0,-1.172743797E0,-1.948669076E0
1.805989144E1,2.875645161E0,-2.566125870E0,4.981623292E-1
1.806968244E1,2.885242939E0,-3.401376724E0,2.387481451E0
1.808007644E1,2.552001476E0,-3.978666306E0,3.310156822E0
1.808972644E1,2.470818520E0,-4.529251099E0,3.831025600E0
1.809968744E1,2.489780426E0,-4.850450516E0,3.918213367E0
1.811048744E1,2.234200954E0,-4.888045311E0,3.595315933E0
1.811967744E1,1.565794468E0,-4.535354614E0,3.289171219E0
1.812963744E1,3.124356270E-1,-3.336438179E0,3.199121714E0
1.813967944E1,-1.318727970E0,-2.154066086E0,2.645267248E0
1.814968844E1,-2.569279909E0,-7.083864212E-1,1.782378435E0
1.815971544E1,-2.988184214E0,6.473693848E-1,1.327225327E0
1.816971244E1,-2.735040188E0,1.308736324E0,1.184801340E0
1.817989844E1,-2.224883080E0,1.417901039E0,1.124701381E0
1.818972344E1,-1.903873682E0,1.381736755E0,1.054092884E0
1.819972244E1,-1.920146227E0,1.444788933E0,8.553385139E-1
1.820984644E1,-1.976911068E0,1.574496269E0,7.844734192E-1
1.821969444E1,-1.714040518E0,1.476504326E0,8.716109991E-1
1.822973344E1,-1.158847570E0,1.139157772E0,1.012371540E0
1.823990344E1,-7.214653492E-1,7.438759804E-1,1.135897279E0
1.824971644E1,-5.314927101E-1,3.237638474E-1,1.208274603E0
1.826221344E1,-4.590444565E-1,-1.703386307E-1,1.222132921E0
1.827996944E1,-3.453679085E-1,-8.765401840E-1,1.103505373E0
1.828971244E1,-5.319428444E-1,-7.305622101E-1,9.674451351E-1
1.829968144E1,-7.018978596E-1,-4.442472458E-1,8.641127348E-1
1.830971044E1,-8.459532261E-1,-9.215831757E-2,8.221586943E-1
1.831972344E1,-9.660873413E-1,3.435316086E-1,7.122329473E-1
1.832970144E1,-1.096457720E0,8.112797737E-1,6.013859510E-1
1.833981144E1,-1.235251665E0,1.289556980E0,4.681015015E-1
1.834981244E1,-1.330716610E0,1.668928146E0,3.050070107E-1
1.835970544E1,-1.409141779E0,1.898817062E0,1.736783981E-1
1.836968344E1,-1.484077215E0,1.889973640E0,-1.915770769E-2
1.837976244E1,-1.438029528E0,1.672040939E0,-2.716144919E-1
1.838972744E1,-1.371873617E0,1.393386841E0,-5.269318819E-1
1.839970744E1,-1.385342121E0,1.237027168E0,-7.579892874E-1
1.840964944E1,-1.392777443E0,1.110478401E0,-9.491338134E-1
1.841968844E1,-1.499708414E0,1.088461876E0,-1.140519142E0
1.842989244E1,-1.542144775E0,1.072743416E0,-1.300128102E0
1.843972244E1,-1.552989960E0,9.594335556E-1,-1.420724392E0
1.844982344E1,-1.471608639E0,8.667578697E-1,-1.499371767E0
1.845968444E1,-1.346825361E0,7.463588715E-1,-1.528152466E0
1.846968444E1,-1.173264265E0,7.158184052E-1,-1.532987595E0
1.847983744E1,-8.346328735E-1,6.567296982E-1,-1.606964707E0
1.848967744E1,-4.348461628E-1,6.356983185E-1,-1.784817815E0
1.849978944E1,-6.319618225E-2,6.953945160E-1,-2.005277157E0
1.850975544E1,2.601537704E-1,8.066425323E-1,-2.292174578E0
1.851971244E1,5.640611649E-1,8.954730034E-1,-2.513175488E0
1.852975644E1,8.310298920E-1,9.170665741E-1,-2.485142231E0
1.853967444E1,1.008282185E0,8.368377686E-1,-2.153445959E0
1.854973144E1,1.027830124E0,7.903013229E-1,-1.758993626E0
1.855996944E1,7.675194740E-1,5.704050064E-1,-1.454210997E0
1.856964944E1,5.981950760E-1,2.834329605E-1,-1.169089317E0
1.857966144E1,4.985747337E-1,3.784179688E-2,-1.257695794E0
1.859023944E1,5.962252617E-1,-3.629579544E-1,-1.380050421E0
1.859982444E1,1.142630100E0,-7.941770554E-1,-1.453235984E0
1.860974144E1,1.894608021E0,-1.172715187E0,-1.433005095E0
1.861979044E1,2.776103497E0,-2.001391411E0,-1.427438140E0
1.862974744E1,3.507168293E0,-2.731699944E0,-1.474253058E0
1.863988444E1,3.944597721E0,-3.057604790E0,-1.389302254E0
1.864969244E1,4.260229111E0,-3.238180161E0,-1.021942973E0
1.865964844E1,4.514241695E0,-3.426681519E0,-4.229465723E-1
1.866977644E1,4.660234928E0,-3.653081894E0,1.018979549E-1
1.867982944E1,4.526891232E0,-3.740591049E0,2.852922678E-1
1.868968844E1,4.035799980E0,-3.637974739E0,9.031093121E-2
1.869967744E1,3.274761677E0,-3.423565865E0,7.804304361E-2
1.870970744E1,2.149098396E0,-2.952477455E0,1.850946546E-1
1.871972144E1,8.284249306E-1,-2.166511536E0,3.136672974E-1
1.872967144E1,-2.333483696E-1,-1.584331512E0,4.404915571E-1
1.873969144E1,-1.083906889E0,-1.199513435E0,5.942710638E-1
1.874972744E1,-1.842427254E0,-8.981952667E-1,8.347066641E-1
1.875967644E1,-2.564288378E0,-7.088851929E-1,1.193672657E0
1.876982644E1,-3.255540848E0,-5.672473907E-1,1.538470984E0
1.877974644E1,-3.875199318E0,-5.000667572E-1,1.791012526E0
1.878973244E1,-4.420347691E0,-4.474172592E-1,1.920704603E0
1.879967244E1,-4.993928909E0,-4.518823624E-1,2.208669662E0
1.880968044E1,-5.524281502E0,-6.275725365E-1,2.795197725E0
1.881966644E1,-5.446740150E0,-1.086793423E0,2.824935913E0
1.882997444E1,-5.426806927E0,-1.574618340E0,2.792717695E0
1.883977544E1,-5.305274010E0,-1.967429161E0,3.159274817E0
1.884976844E1,-4.657867432E0,-2.405066967E0,4.053190708E0
1.885968944E1,-4.140157700E0,-2.542237759E0,4.529601097E0
1.886972844E1,-3.923107386E0,-2.329886913E0,4.554624557E0
1.887983844E1,-3.806121349E0,-2.073256493E0,4.142219067E0
1.888967644E1,-3.573040009E0,-1.632336617E0,3.770676613E0
1.889971444E1,-3.277850389E0,-1.147896767E0,3.397149563E0
1.890981844E1,-2.955577135E0,-6.447033882E-1,2.985401869E0
1.891969644E1,-2.944169998E0,-6.614780426E-2,2.629582644E0
1.892966144E1,-2.937256575E0,4.303927422E-1,2.354589224E0
1.893967044E1,-2.718407393E0,7.936153412E-1,2.170292377E0
1.894974044E1,-2.395958900E0,1.037187576E0,2.049259663E0
1.895991744E1,-2.283088446E0,1.435034752E0,1.620882154E0
1.897009144E1,-1.865854740E0,1.544023991E0,1.379065394E0
1.897967844E1,-7.946820259E-1,1.233197212E0,8.067898750E-1
1.899000044E1,-6.204853058E-1,1.208373547E0,-4.444501400E-1
1.899972744E1,-1.364491701E0,1.663244247E0,-1.324784040E0
1.901078444E1,-1.355648994E0,2.018161297E0,-1.475152254E0
1.901967744E1,-9.736902714E-1,2.245111465E0,-1.528017282E0
1.902962744E1,-3.945569992E-1,2.242573261E0,-1.596487522E0
1.903967344E1,4.139709473E-2,1.912009716E0,-1.104094028E0
1.904970144E1,-3.296051025E-1,1.621716022E0,2.932178974E-1
1.905971844E1,-8.689482212E-1,1.606516361E0,1.407433987E0
1.906963144E1,-1.075379848E0,1.443234921E0,2.161387444E0
1.907970644E1,-1.025730133E0,1.074175835E0,2.698506117E0
1.908972944E1,-4.362955093E-1,3.016858101E-1,3.391488791E0
1.909970944E1,-1.063876152E-1,1.643795967E-1,3.513075352E0
1.910971144E1,2.100787163E-1,1.590714455E-1,3.532875538E0
1.911976144E1,5.024161339E-1,3.012785912E-1,3.493792534E0
1.913038444E1,8.083710670E-1,4.584980011E-1,3.449183464E0
1.914134244E1,1.259129047E0,7.087206841E-1,2.953738213E0
1.915092144E1,1.969686031E0,6.041593552E-1,1.637699962E0
1.915976844E1,3.091547012E0,2.427196503E-2,-2.736971378E-1
1.917074844E1,4.302729130E0,-6.676607132E-1,-3.263274670E0
1.918034044E1,3.926168919E0,-1.058949471E0,-6.678988934E0
1.918995544E1,2.081339359E0,-1.001033783E0,-9.441228867E0
1.919965544E1,7.200932503E-1,-1.358381271E0,-1.027183628E1
1.920968644E1,2.049646378E-1,-1.582192421E0,-9.948011398E0
1.921965844E1,7.158584595E-1,-1.269471645E0,-8.249844551E0
1.922967444E1,1.161854744E0,-1.009655476E0,-5.565715790E0
1.923968244E1,1.232726574E0,-1.504445076E0,-2.984810114E0
1.924969044E1,1.253973961E0,-2.637467861E0,-9.402689934E-1
1.925990544E1,1.406309605E0,-3.819205284E0,5.752284527E-1
1.926967644E1,1.487443447E0,-4.928613663E0,2.121726751E0
1.927962644E1,1.565581799E0,-6.071666718E0,3.498150826E0
1.928970844E1,1.726534367E0,-6.966207504E0,4.388208389E0
1.929999244E1,1.487408161E0,-7.244344234E0,5.111854553E0
1.930974344E1,6.666765213E-1,-6.630496025E0,5.731226921E0
1.931971044E1,-1.220825672E0,-5.148100376E0,5.807696819E0
1.932984144E1,-3.067955494E0,-3.321413994E0,5.022960663E0
1.933967844E1,-4.249964237E0,-1.234069824E0,3.990047455E0
1.934988144E1,-4.433046818E0,3.445863724E-1,2.763839245E0
1.935964944E1,-4.163950920E0,1.229622841E0,2.145514011E0
1.936971644E1,-3.940850019E0,1.729466915E0,2.087491512E0
1.937967344E1,-3.839916706E0,2.082165241E0,2.125019550E0
1.938966444E1,-3.754424572E0,2.091396332E0,2.340520382E0
1.939964744E1,-3.409795523E0,1.723189354E0,2.696431160E0
1.940976744E1,-2.683300734E0,1.022716999E0,3.041823387E0
1.941975844E1,-1.741151094E0,3.591537476E-1,3.215289116E0
1.942969144E1,-1.147831917E0,-1.351709366E-1,3.285068035E0
1.943962444E1,-8.716015816E-1,-6.715698242E-1,3.195245743E0
1.944968444E1,-6.534461975E-1,-1.173728943E0,3.048388481E0
1.946178544E1,-5.947742462E-1,-1.557293892E0,3.000275612E0
1.947964144E1,-8.228788376E-1,-1.746051788E0,2.553509712E0
1.948962744E1,-9.177269936E-1,-1.442520142E0,2.319924116E0
1.949971144E1,-1.080185413E0,-9.854402542E-1,2.130244970E0
1.950965444E1,-1.187641144E0,-6.185617447E-1,1.916961789E0
1.951966344E1,-1.237964869E0,-3.134336472E-1,1.683215499E0
1.952998844E1,-1.320395231E0,2.204513550E-2,1.392254591E0
1.953965944E1,-1.494411945E0,3.341350555E-1,1.122708797E0
1.955043244E1,-1.683757544E0,6.054372787E-1,8.802490830E-1
1.955972244E1,-1.862566710E0,8.011922836E-1,7.117279172E-1
1.957059744E1,-2.074610710E0,9.540171623E-1,5.595914125E-1
1.957974744E1,-2.172613859E0,1.061295986E0,4.270581007E-1
1.959096144E1,-2.355204582E0,1.122231483E0,9.357023239E-2
1.959967144E1,-2.341824055E0,1.136739731E0,4.905891418E-2
1.960990944E1,-2.440737963E0,1.116301537E0,-7.629764080E-2
1.961972044E1,-2.532759666E0,1.111492634E0,-1.818155050E-1
1.962969344E1,-2.497935295E0,9.304957390E-1,-2.174438238E-1
1.963965244E1,-2.225624323E0,7.340755463E-1,-2.494218349E-1
1.964976744E1,-1.833712816E0,6.009030342E-1,-3.484902382E-1
1.965982644E1,-1.337903976E0,6.890358925E-1,-4.978180528E-1
1.966983144E1,-8.717579842E-1,8.794198036E-1,-6.963707209E-1
1.967967944E1,-4.367871284E-1,1.011204720E0,-9.620459080E-1
1.969099844E1,-3.143358231E-2,1.095165730E0,-1.162225962E0
1.969968144E1,3.258485794E-1,1.122672081E0,-1.208351612E0
1.970964644E1,6.166353226E-1,1.100196362E0,-1.211203575E0
1.971967644E1,8.662528992E-1,1.017210960E0,-1.181900978E0
1.972975244E1,1.139198780E0,8.822922707E-1,-1.077823281E0
1.973968944E1,1.294608116E0,7.264595032E-1,-1.036830664E0
1.974968444E1,1.458745480E0,5.208740234E-1,-9.805927873E-1
1.975977344E1,1.481443405E0,2.996025085E-1,-8.973281980E-1
1.976973444E1,1.534498692E0,4.326152802E-2,-8.268132210E-1
1.977971844E1,1.589990139E0,-2.241067886E-1,-7.732365131E-1
1.978967344E1,1.779030323E0,-5.292882919E-1,-7.263801098E-1
1.979968544E1,2.076243877E0,-8.757896423E-1,-6.929823160E-1
1.980997944E1,2.447153568E0,-1.298470497E0,-6.461188793E-1
1.981969644E1,2.839718342E0,-1.683818817E0,-6.957709789E-1
1.982973744E1,3.229295731E0,-1.968218803E0,-9.872919917E-1
1.983969344E1,3.685302258E0,-2.197010994E0,-1.033747435E0
1.985041644E1,4.047810555E0,-2.552005768E0,-3.898030519E-1
1.985971444E1,4.279333591E0,-3.002346039E0,1.267418563E-1
1.986970844E1,4.265729427E0,-3.280261040E0,2.327034324E-1
1.987968544E1,3.979444027E0,-3.260467529E0,-1.465380192E-3
1.989496544E1,3.187907696E0,-3.189440727E0,-1.000209332E0
1.990963544E1,2.461255550E0,-3.136741638E0,-1.065671682E0
1.991970844E1,1.220819473E0,-2.502416611E0,-8.700292706E-1
1.992967244E1,5.090188980E-2,-1.879506111E0,-5.896422267E-1
1.993965944E1,-8.788986206E-1,-1.450967789E0,-2.851420641E-1
1.994981644E1,-1.667283297E0,-1.102675438E0,-8.248150349E-3
1.995968444E1,-2.436628580E0,-7.607870102E-1,2.610989213E-1
1.996973744E1,-3.187581301E0,-3.815727234E-1,6.125783920E-1
1.997970044E1,-3.782811880E0,-3.822326660E-2,9.689760208E-1
1.998970244E1,-4.307258129E0,2.382898331E-1,1.288918138E0
1.999971844E1,-4.846218586E0,2.453355789E-1,1.604325056E0
2.000965444E1,-4.783555984E0,-2.555942535E-1,2.018151283E0
2.001967144E1,-4.462406158E0,-1.098459244E0,2.455604553E0
2.003007544E1,-4.142390251E0,-1.876117706E0,2.708832264E0
2.003979844E1,-3.864643574E0,-2.379520416E0,3.355471373E0
2.005093744E1,-3.682478666E0,-2.719074249E0,4.059214115E0
2.005967444E1,-3.488312721E0,-2.549043655E0,3.941446304E0
2.007046344E1,-3.254514694E0,-2.219144821E0,3.189623594E0
2.008005444E1,-2.999156237E0,-2.005994797E0,2.338630676E0
2.009132944E1,-2.639527082E0,-7.443208694E-1,1.696861267E0
2.009964744E1,-2.622185469E0,-7.470312119E-1,1.739886284E0
2.011092144E1,-2.600812435E0,6.762471199E-1,9.275077581E-1
2.011969844E1,-2.593173027E0,6.777148247E-1,9.377316236E-1
2.012968244E1,-2.330327272E0,1.156633854E0,1.081871271E0
2.013969944E1,-1.892241240E0,1.322512627E0,1.156980991E0
2.014968644E1,-1.576643705E0,1.448607445E0,7.023048401E-1
2.015970544E1,-1.746533871E0,1.760651112E0,-7.047564983E-1
2.016981144E1,-2.481746197E0,2.443948746E0,-8.391308784E-1
2.017968744E1,-2.153114796E0,2.554856300E0,-2.789196968E-1
2.019080544E1,-1.702161312E0,2.534556389E0,2.619512081E-1
2.019969144E1,-1.330021858E0,2.365746021E0,2.600870132E-1
2.020967744E1,-1.103309631E0,2.008219242E0,7.316775322E-1
2.021972244E1,-1.212979317E0,1.693929195E0,1.556309342E0
2.022974344E1,-1.385672092E0,1.493898869E0,2.153392076E0
2.023969144E1,-1.302362919E0,1.200574875E0,2.637658119E0
2.024968744E1,-1.108365536E0,9.426007271E-1,2.924045086E0
2.025993544E1,-8.225080967E-1,7.724728584E-1,3.135488272E0
2.026964444E1,-5.185918808E-1,6.354169846E-1,3.456552029E0
2.027969244E1,-1.056394577E-1,4.849324226E-1,3.873632431E0
2.028966344E1,3.025817871E-1,3.739595413E-1,4.142234802E0
2.029964044E1,7.229146957E-1,3.171019554E-1,4.264478683E0
2.030976744E1,1.178281307E0,2.535834312E-1,4.218329430E0
2.032162744E1,1.619967937E0,2.058386803E-1,4.074830532E0
2.032968844E1,1.968343258E0,2.087802887E-1,3.872389317E0
2.033984644E1,2.400687218E0,5.145597458E-1,3.477985859E0
2.034987744E1,3.398303032E0,1.117609501E0,1.238406658E0
2.035968744E1,5.349848747E0,5.150384903E-1,-2.430719376E0
2.036979044E1,7.503353119E0,-7.635288239E-1,-9.223986626E0
2.037967944E1,4.626940727E0,-9.878702164E-1,-1.280303097E1
2.038962944E1,1.133401394E0,-7.688980103E-1,-1.229832458E1
2.039967544E1,-1.129865646E-1,-5.754985809E-1,-1.097460079E1
2.040967544E1,9.581518173E-2,-1.389398575E-1,-8.619503975E0
2.041971744E1,8.954062462E-1,1.568884850E-1,-6.128184795E0
2.042971644E1,1.575405121E0,-3.203573227E-1,-3.591265678E0
2.043965944E1,2.311472893E0,-1.830845833E0,-8.319382668E-1
2.045039244E1,2.679955959E0,-3.396936417E0,1.591153383E0
2.045967444E1,2.653491974E0,-4.667756081E0,3.189440250E0
2.046965444E1,2.433602810E0,-5.532466888E0,4.249132156E0
2.047980844E1,2.090435505E0,-5.671942234E0,4.896048546E0
2.048963044E1,1.508789539E0,-5.283415794E0,4.926148415E0
2.049971144E1,8.191819191E-1,-5.030071735E0,4.586875439E0
2.050968344E1,9.510326385E-2,-4.547152996E0,4.593618393E0
2.051971044E1,-1.266984940E0,-3.694324970E0,4.537752151E0
2.052967044E1,-2.797747374E0,-2.865441322E0,4.395715714E0
2.053991144E1,-4.024804115E0,-1.805901051E0,3.645578384E0
2.054966944E1,-4.427943707E0,-2.967953682E-1,2.904392242E0
2.056200444E1,-4.201736450E0,7.555298805E-1,2.833060741E0
2.057966544E1,-3.533012867E0,1.286250591E0,2.408361197E0
2.058972344E1,-3.119352818E0,1.156019688E0,2.298605680E0
2.059970544E1,-2.618039608E0,7.365679741E-1,2.517908335E0
2.060969044E1,-1.968744516E0,4.148674011E-2,2.687132359E0
2.061971044E1,-1.038059235E0,-8.361330032E-1,2.870646000E0
2.062985044E1,-7.604122162E-2,-1.773953438E0,3.099643707E0
2.063964344E1,5.023441315E-1,-2.394785881E0,3.271641493E0
2.064968644E1,4.265699387E-1,-2.384975433E0,3.344708443E0
2.065966644E1,-3.077888489E-2,-1.859934807E0,3.134841681E0
2.067067044E1,-7.603111267E-1,-6.691951752E-1,2.441871643E0
2.067977044E1,-7.328968048E-1,-6.571025848E-1,2.457968235E0
2.069104744E1,-1.321796656E0,4.473090172E-1,2.104760408E0
2.069968944E1,-1.463379383E0,7.545247078E-1,2.075899839E0
2.070993344E1,-1.632530212E0,9.526705742E-1,1.997732162E0
2.071985344E1,-1.824224234E0,1.076214314E0,1.930258989E0
2.072994544E1,-2.033942699E0,1.153281212E0,1.817060709E0
2.073972244E1,-2.255236387E0,1.277255535E0,1.670788646E0
2.074975644E1,-2.432135344E0,1.354355812E0,1.526363850E0
2.075974044E1,-2.493608713E0,1.329290867E0,1.402335167E0
2.076967944E1,-2.533145666E0,1.294739723E0,1.260056257E0
