"Time (s)","Linear Acceleration x (m/s^2)","Linear Acceleration y (m/s^2)","Linear Acceleration z (m/s^2)"
0.000000000E0,2.136933804E-1,-4.240999222E-1,-1.005013943E0
1.371764700E-2,-1.442396641E-1,-2.912216187E-1,-5.944080353E-1
2.955264700E-2,-8.438467979E-2,-3.403029442E-1,2.449321747E-2
4.243964700E-2,-1.813499928E-1,-2.493228912E-1,4.386897087E-1
5.397114700E-2,-2.536952496E-1,-4.240703583E-2,5.817499161E-1
6.465539700E-2,-3.934392929E-1,3.325176239E-2,6.527075768E-1
7.519152200E-2,-5.367558002E-1,8.616828918E-2,7.530260086E-1
8.527008400E-2,-5.390753746E-1,1.173682213E-1,7.548508644E-1
9.534836500E-2,-3.604023457E-1,6.238365173E-2,4.663014412E-1
1.053620060E-1,-2.173178196E-1,-7.509088516E-2,-1.522130966E-1
1.153983260E-1,-2.497532368E-1,-1.035838127E-1,-1.248005867E0
1.255624860E-1,-5.175263882E-1,-8.664035797E-2,-1.158463478E0
1.355475660E-1,-6.285201311E-1,-3.929691315E-1,-5.856323242E-1
1.454461060E-1,-6.160634756E-1,-4.769954681E-1,-3.675994873E-1
1.554653760E-1,-5.575116873E-1,-4.659600258E-1,-1.860618591E-2
1.654075110E-1,-5.972846746E-1,-3.734073639E-1,3.407592773E-1
1.757260790E-1,-6.309609413E-1,-3.002552986E-1,6.793165207E-1
1.856103630E-1,-6.796100140E-1,-1.951599121E-1,9.069342613E-1
1.955355050E-1,-6.284632683E-1,-9.656715393E-2,1.020588398E0
2.054520760E-1,-5.444550514E-1,-1.760578156E-2,1.159676552E0
2.154853610E-1,-4.885013103E-1,1.048660278E-1,1.338756561E0
2.256965040E-1,-5.152276158E-1,2.887802124E-1,1.375234604E0
2.355690750E-1,-5.598442554E-1,4.463543892E-1,1.484653473E0
2.455163610E-1,-6.362612844E-1,5.005297661E-1,1.551885605E0
2.555035040E-1,-6.702518463E-1,4.747023582E-1,1.531921387E0
2.654495750E-1,-6.343569160E-1,4.005684853E-1,1.493691921E0
2.754701110E-1,-5.401556492E-1,3.687252998E-1,1.479150772E0
2.854333790E-1,-3.773338795E-1,3.769602776E-1,1.470191002E0
2.954615130E-1,-3.410525322E-1,4.668769836E-1,1.396296501E0
3.054590800E-1,-2.901560664E-1,5.406179428E-1,1.253047466E0
3.154788630E-1,-1.733927727E-1,5.041456223E-1,1.160308838E0
3.254217550E-1,-1.432746649E-2,4.448180199E-1,1.214443207E0
3.354177010E-1,1.946128607E-1,1.835999489E-1,1.129792213E0
3.454316740E-1,4.401857257E-1,-7.042264938E-2,1.184272766E0
3.555136600E-1,5.264554620E-1,-3.911094666E-1,1.383363724E0
3.654531530E-1,5.201365948E-1,-8.055000305E-1,1.396189690E0
3.754679000E-1,3.850316107E-1,-1.198370934E0,1.405117989E0
3.854552730E-1,1.241823435E-1,-1.497182846E0,1.492534637E0
3.954519600E-1,-2.515459061E-1,-1.694196463E0,1.685585022E0
4.055973030E-1,-6.813414097E-1,-1.723686695E0,1.846363068E0
4.155494750E-1,-9.672724009E-1,-1.668695688E0,2.065667152E0
4.254690610E-1,-1.059155464E0,-1.545932770E0,2.286214828E0
4.354643540E-1,-9.231911898E-1,-1.463284016E0,2.377875328E0
4.454265000E-1,-5.865845680E-1,-1.459101200E0,2.292618752E0
4.555605730E-1,-1.842773855E-1,-1.467331886E0,2.099153519E0
4.654626100E-1,1.508489847E-1,-1.538826227E0,1.689960480E0
4.755386280E-1,2.097666860E-1,-1.574169636E0,1.349826813E0
4.854491370E-1,3.068968654E-2,-1.599570513E0,1.079678535E0
4.955513920E-1,-3.028991222E-1,-1.675726175E0,7.369823456E-1
5.057955190E-1,-6.927378774E-1,-1.966334105E0,3.474607468E-1
5.155890830E-1,-1.103281140E0,-2.268436432E0,-2.853522301E-1
5.260218650E-1,-1.420459151E0,-2.240484238E0,-5.909156799E-1
5.358077560E-1,-1.666458845E0,-2.343173981E0,-8.020081520E-1
5.456642010E-1,-1.777828336E0,-2.514582872E0,-7.962884903E-1
5.583999240E-1,-2.163408995E0,-2.473801374E0,-2.320570946E-1
5.754196470E-1,-2.105201006E0,-2.479387522E0,-2.288856506E-1
5.856946470E-1,-2.145512342E0,-2.524291039E0,1.826415062E-1
5.953566470E-1,-2.186178446E0,-2.619400263E0,6.052255630E-1
6.054096470E-1,-2.208808899E0,-2.654735088E0,8.843541145E-1
6.206776470E-1,-2.098927975E0,-2.618293762E0,1.460665703E0
6.356406470E-1,-1.837410688E0,-2.577801704E0,1.823662758E0
6.453926470E-1,-1.605033636E0,-2.547639608E0,2.179250717E0
6.554396470E-1,-1.398022652E0,-2.389080763E0,2.476883888E0
6.653276470E-1,-9.109904766E-1,-2.140280485E0,2.284164429E0
6.761456470E-1,-5.722196698E-1,-1.928616524E0,1.807175636E0
6.853346470E-1,-3.059372604E-1,-1.777418137E0,1.233537674E0
6.954296470E-1,-8.877637982E-2,-1.694366932E0,7.038259506E-1
7.062766470E-1,-4.704239964E-2,-1.625427961E0,2.476873398E-1
7.156546470E-1,-6.919366121E-2,-1.560361624E0,-1.240997314E-1
7.256986470E-1,-1.609596610E-1,-1.465006351E0,-3.052377701E-1
7.365276470E-1,-2.815180421E-1,-1.322828293E0,-3.639802933E-1
7.453276470E-1,-4.225303531E-1,-1.206250191E0,-3.744764328E-1
7.553596470E-1,-4.183409214E-1,-1.133060455E0,-3.679819107E-1
7.653526470E-1,-3.895251155E-1,-1.051839828E0,-4.048552513E-1
7.761946470E-1,-3.723173141E-1,-9.890556335E-1,-4.455161095E-1
7.855316470E-1,-4.202251136E-1,-9.224786758E-1,-3.921837807E-1
7.953696470E-1,-3.940696716E-1,-7.398848534E-1,-3.532657623E-1
8.054406470E-1,-3.537674546E-1,-5.727653503E-1,-2.684001923E-1
8.154156470E-1,-4.213674068E-1,-4.116358757E-1,-1.284685135E-1
8.255076470E-1,-4.655082226E-1,-2.732691765E-1,7.520580292E-2
8.353756470E-1,-4.669272900E-1,-1.890730858E-1,2.021198273E-1
8.456086470E-1,-3.420240879E-1,-1.361083984E-1,2.161960602E-1
8.554556470E-1,-2.705168128E-1,-4.619884491E-2,1.733722687E-1
8.653646470E-1,-1.418856978E-1,-6.729364395E-2,1.532440186E-1
8.753736470E-1,-6.738305092E-3,-5.771732330E-2,6.129074097E-2
8.853366470E-1,8.051431179E-2,-4.078006744E-2,-2.712249756E-3
8.959146470E-1,1.722732186E-1,-5.810642242E-2,-6.059074402E-2
9.064796470E-1,1.809499264E-1,-4.723596573E-2,-1.280651093E-1
9.154026470E-1,1.578352451E-1,-5.816936493E-3,-1.588420868E-1
9.253876470E-1,1.593711376E-1,5.322933197E-3,-2.458105087E-1
9.354996470E-1,1.299076676E-1,1.011419296E-1,-3.520383835E-1
9.454126470E-1,1.076290011E-1,2.158150673E-1,-3.867988586E-1
9.553676470E-1,9.412562847E-2,3.252801895E-1,-5.197477341E-1
9.652996470E-1,3.897333145E-2,3.962922096E-1,-5.875310898E-1
9.754756470E-1,9.131699800E-2,4.475436211E-1,-6.823811531E-1
9.858926470E-1,-2.918386459E-2,5.455832481E-1,-9.552016258E-1
9.953436470E-1,-1.215545535E-1,6.623153687E-1,-1.057511330E0
1.005338647E0,-1.972676516E-1,6.914434433E-1,-9.567923546E-1
1.016072647E0,-3.624317646E-1,7.083945274E-1,-7.884082794E-1
1.025454647E0,-5.290273428E-1,7.013664246E-1,-6.059045792E-1
1.036204647E0,-5.957170129E-1,6.353740692E-1,-3.736343384E-1
1.045327647E0,-6.139456630E-1,5.835390091E-1,-1.641216278E-1
1.055369647E0,-5.692610145E-1,5.576133728E-1,-5.308532715E-2
1.065586647E0,-5.429707766E-1,5.920815468E-1,8.583545685E-2
1.075413647E0,-4.694309235E-1,6.713118553E-1,2.308759689E-1
1.085429647E0,-3.603499532E-1,7.497019768E-1,3.694849014E-1
1.095306647E0,-1.670906544E-1,6.844811440E-1,5.780076981E-1
1.105912647E0,-2.329689264E-2,6.477246284E-1,6.094141006E-1
1.115367647E0,1.499218345E-1,6.144514084E-1,5.065269470E-1
1.125444647E0,3.408945799E-1,5.973348618E-1,3.266077042E-1
1.135694647E0,4.389915466E-1,5.687727928E-1,5.288124084E-3
1.145412647E0,4.726400077E-1,5.868382454E-1,-3.126258850E-1
1.155552647E0,4.951556921E-1,4.581265450E-1,-4.020190239E-1
1.165422647E0,4.898575544E-1,3.470087051E-1,-4.524650574E-1
1.175374647E0,4.258219004E-1,3.142457008E-1,-4.804415703E-1
1.185684647E0,3.326430023E-1,2.586903572E-1,-6.327853203E-1
1.195577647E0,3.077514470E-1,1.944642067E-1,-7.040700912E-1
1.205370647E0,3.123001754E-1,1.465015411E-1,-7.265181541E-1
1.215369647E0,5.718327761E-1,-1.758828163E-1,-1.248431206E-1
1.225519647E0,-7.150581479E-2,3.558130264E-1,-7.194380760E-1
1.235516647E0,-1.042953730E-1,4.181880951E-1,-2.067399025E-1
1.245302647E0,-1.676225364E-1,2.006349564E-1,2.877035141E-1
1.255607647E0,-3.725262284E-1,1.402869225E-1,4.364824295E-1
1.266214647E0,-3.908539712E-1,3.150815964E-1,5.356788635E-1
1.275607647E0,-2.981926799E-1,3.364515305E-1,8.826618195E-1
1.285332647E0,-2.007004619E-1,2.995843887E-1,1.130772591E0
1.295319647E0,-4.756325483E-2,2.540097237E-1,1.202274323E0
1.308044647E0,2.136846781E-1,-7.121324539E-2,1.138137817E0
1.318140647E0,-4.891094565E-2,3.587713242E-1,1.624161720E0
1.335315647E0,5.620622635E-2,5.692167282E-1,1.249915123E0
1.345439647E0,2.633338571E-1,4.990115166E-1,1.049870491E0
1.355905647E0,2.697671652E-1,5.570797920E-1,1.165311813E0
1.365447647E0,2.539089918E-1,4.573645592E-1,1.206365585E0
1.375344647E0,3.298435807E-1,1.228642464E-1,1.278017998E0
1.385679647E0,2.837440372E-1,-1.807861328E-1,1.423805237E0
1.395334647E0,2.495831847E-1,-4.305663109E-1,1.533553123E0
1.405443647E0,3.408937752E-1,-6.697196960E-1,1.565532684E0
1.415478647E0,3.743666410E-1,-9.958043098E-1,1.264761925E0
1.425426647E0,3.774092197E-1,-1.219592571E0,9.253015518E-1
1.435428647E0,3.287567496E-1,-1.307628632E0,6.210203171E-1
1.445708647E0,3.472549617E-1,-1.398701668E0,3.466005325E-1
1.455891647E0,4.165621400E-1,-1.519252062E0,1.599054337E-1
1.465670647E0,3.427819610E-1,-1.586847067E0,2.245960236E-1
1.475513647E0,2.549507022E-1,-1.579922676E0,4.395961761E-1
1.485561647E0,2.509489059E-1,-1.580374479E0,5.266103745E-1
1.495311647E0,2.078252286E-1,-1.559120893E0,4.479341507E-1
1.505380647E0,9.090761840E-2,-1.458937645E0,5.141992569E-1
1.515621647E0,8.086115122E-2,-1.579845190E0,5.574684143E-1
1.525557647E0,2.212755829E-1,-1.769729614E0,5.301275253E-1
1.535349647E0,4.191843271E-1,-1.866500139E0,4.207153320E-1
1.545339647E0,6.141479611E-1,-1.894413233E0,4.070453644E-1
1.555471647E0,6.730640531E-1,-1.453305483E0,4.227638245E-3
1.565400647E0,7.341746688E-1,-1.181886911E0,-3.716993332E-1
1.575646647E0,7.355897427E-1,-9.561195374E-1,-5.538377762E-1
1.585763647E0,6.513157487E-1,-8.010313511E-1,-5.090055466E-1
1.595424647E0,7.453630567E-1,-7.851555347E-1,-3.984413147E-1
1.605369647E0,7.840185165E-1,-7.235536575E-1,-3.029546738E-1
1.615355647E0,8.438255191E-1,-6.163926125E-1,-1.087379456E-1
1.625553647E0,7.429979444E-1,-4.103600979E-1,9.996795654E-2
1.639077647E0,4.776026607E-1,-7.825374603E-2,4.511613846E-1
1.655371647E0,1.205650568E-1,1.257939339E-1,4.748535156E-1
1.665359647E0,-1.626870036E-1,1.668024063E-1,5.268201828E-1
1.675435647E0,-3.517771363E-1,1.628320217E-1,4.863462448E-1
1.685340647E0,-4.926415384E-1,1.070263386E-1,2.930746078E-1
1.695405647E0,-6.983522773E-1,8.322215080E-2,1.133918762E-1
1.705334647E0,-8.608078361E-1,3.379082680E-2,-2.875709534E-2
1.715354647E0,-8.117564321E-1,6.409716606E-2,-2.057771683E-1
1.728513647E0,-6.326239109E-1,3.468267918E-1,-9.331502914E-1
1.745335647E0,-8.307682872E-1,5.678887367E-1,-1.666917801E0
1.756014647E0,-8.167484999E-1,6.943745613E-1,-2.119011879E0
1.765464647E0,-7.755892277E-1,8.190345764E-1,-2.471350670E0
1.775873647E0,-6.730158925E-1,1.079444408E0,-2.719429493E0
1.785324647E0,-3.698105216E-1,1.107173443E0,-2.691549301E0
1.795366647E0,-3.534845710E-1,8.843669891E-1,-2.595630646E0
1.805915647E0,-5.380365849E-1,7.666273117E-1,-2.434628963E0
1.815453647E0,-7.457271218E-1,6.976780891E-1,-2.011557579E0
1.825336647E0,-8.319924474E-1,6.438221931E-1,-1.432358742E0
1.835428647E0,-8.229144812E-1,6.541395187E-1,-1.020258427E0
1.845378647E0,-8.375706673E-1,7.452242374E-1,-6.876659393E-1
1.855353647E0,-8.303703070E-1,7.907655239E-1,-4.285230637E-1
1.866003647E0,-5.953876972E-1,8.877053261E-1,-3.238620758E-1
1.875430647E0,-1.081669331E-1,1.170953035E0,-2.635488510E-1
1.885357647E0,-4.483577609E-2,1.341871738E0,-3.306770325E-1
1.895341647E0,-1.067756116E-1,1.427488804E0,-5.081710815E-1
1.905335647E0,-1.835069060E-1,1.417139292E0,-6.308240891E-1
1.915349647E0,-2.958103716E-1,1.444918871E0,-7.391433716E-1
1.925490647E0,-3.816220462E-1,1.423770189E0,-8.594560623E-1
1.935536647E0,-4.435200989E-1,1.434299707E0,-1.022331715E0
1.945328647E0,-3.805282712E-1,9.168596268E-1,-8.922214508E-1
1.955392647E0,-3.030793667E-1,5.596890450E-1,-7.514109612E-1
1.965441647E0,-3.232501745E-1,5.611901283E-1,-6.275343895E-1
1.975356647E0,-4.368521571E-1,6.596884727E-1,-4.335517883E-1
1.985345647E0,-4.462020397E-1,6.641950607E-1,-2.295598984E-1
1.995451647E0,-3.495694101E-1,6.154861450E-1,-1.023616791E-1
2.009689647E0,-7.847222686E-2,1.346631050E-1,1.671113968E-1
2.025793647E0,1.090210676E-2,-2.516651154E-2,3.170337677E-1
2.037998647E0,-1.032087207E-1,-8.986663818E-2,3.866710663E-1
2.055353647E0,-5.037748814E-1,-2.412414551E-2,1.134828568E0
2.065462647E0,-2.263365388E-1,-2.237930298E-1,1.734678268E0
2.075417647E0,-4.153734446E-2,5.006170273E-2,2.302790642E0
2.086123647E0,-1.140586734E-1,6.627831459E-1,2.352425575E0
2.095369647E0,-2.275322080E-1,1.138906002E0,2.296302795E0
2.105328647E0,-2.268022299E-1,1.374552727E0,2.110630989E0
2.115485647E0,-2.504892945E-1,1.342100620E0,1.949625969E0
2.125365647E0,-1.244673133E-1,9.445538521E-1,1.948767662E0
2.135374647E0,-3.394818306E-1,7.714524269E-1,1.780903816E0
2.145426647E0,-6.407616138E-1,4.753098488E-1,1.653420448E0
2.155840647E0,-5.296533704E-1,1.724905968E-1,1.450618744E0
2.165404647E0,-2.998395562E-1,4.815506935E-1,1.667260170E0
2.175764647E0,-6.558468342E-1,7.677998543E-1,1.892506599E0
2.185413647E0,-8.907973170E-1,3.450360298E-1,1.701884270E0
2.195889647E0,-2.287135124E-1,-2.440648079E-1,1.849633217E0
2.205546647E0,3.183725774E-1,-8.493061066E-1,1.874320984E0
2.215403647E0,5.651136041E-1,-1.529985905E0,2.009951591E0
2.225354647E0,7.549010515E-1,-2.195950747E0,2.130652428E0
2.235375647E0,8.847426772E-1,-2.849504948E0,2.142246246E0
2.245589647E0,6.844741106E-1,-3.220047235E0,2.027530670E0
2.255359647E0,-3.796004653E-1,-3.967372179E0,1.410033226E0
2.265340647E0,-7.152108550E-1,-3.427726269E0,2.969169617E-1
2.275376647E0,-1.142120838E0,-1.225555658E0,-7.668790817E-1
2.286246647E0,-1.507118106E0,-9.554839134E-1,-1.884910107E0
2.295425647E0,-1.872706532E0,-5.842156410E-1,-2.085603714E0
2.305589647E0,-1.897937775E0,-3.494787216E-1,-1.844373703E0
2.316520647E0,-1.614757061E0,-7.812795639E-1,-1.172737122E0
2.325595647E0,-1.344825745E0,-1.634384871E0,2.710561752E-1
2.335359647E0,-1.153804541E0,-2.159192562E0,9.845447540E-1
2.345345647E0,-1.042611837E0,-2.113967657E0,4.641981125E-1
2.355366647E0,-1.435086489E0,-2.096562386E0,8.298654556E-1
2.365499647E0,-1.434559822E0,-2.014741182E0,1.843070984E-1
2.375688647E0,-1.090540886E0,-2.392531872E0,7.315015793E-1
2.385489647E0,-1.176321745E0,-2.786485434E0,2.782840729E-1
2.395368647E0,-2.415606737E0,-1.626032591E0,-6.149129868E-1
2.405396647E0,-2.933419943E0,-1.321197987E0,-2.265052795E-1
2.415559647E0,-2.634402752E0,-1.251570702E0,-1.014614105E-2
2.425696647E0,-1.395104289E0,-1.475977898E0,-6.108713150E-1
2.435406647E0,-4.310652614E-1,-1.282577515E0,-5.704665184E-1
2.445344647E0,1.768785268E-1,-8.917884827E-1,-3.870210648E-1
2.455664647E0,1.549451351E-1,-8.763365746E-1,-3.289833069E-1
2.465476647E0,-1.459335685E-1,-1.009572506E0,-2.457304001E-1
2.475409647E0,5.978673697E-2,-1.127090931E0,-7.405471802E-2
2.486332647E0,4.172864556E-1,-6.658496857E-1,-7.000255585E-2
2.496042647E0,2.355478555E-1,-2.708897591E-1,-7.060699463E-1
2.505505647E0,4.487778544E-1,-4.177422523E-1,-1.089791775E0
2.515488647E0,6.283970475E-1,-6.418676376E-1,-1.290227413E0
2.525347647E0,4.407759309E-1,-6.748487949E-1,-1.429078102E0
2.535537647E0,7.444463670E-2,-8.134906292E-1,-1.369848728E0
2.545573647E0,-3.390031457E-1,-7.778511047E-1,-1.016277790E0
2.555360647E0,-6.160301566E-1,-5.800042152E-1,-4.209661484E-1
2.566736647E0,-8.162158728E-1,-4.153909683E-1,-8.165168762E-2
2.575398647E0,-8.326104879E-1,-2.537045479E-1,1.434020996E-1
2.585666647E0,-7.498270869E-1,4.439163208E-2,5.328865051E-1
2.595378647E0,-5.454783440E-1,2.350711823E-1,1.029812813E0
2.605673647E0,-2.840382755E-1,1.204037666E-1,1.019724846E0
2.615412647E0,-7.495715469E-2,-1.512503624E-1,8.199062347E-1
2.625489647E0,-1.680930704E-1,-2.354993820E-1,8.470897675E-1
2.635388647E0,-3.871455193E-1,-2.554793358E-1,6.966896057E-1
2.645407647E0,-5.468388796E-1,-2.683610916E-1,3.888893127E-1
2.655973647E0,-5.334523916E-1,-2.751159668E-1,1.070642471E-1
2.665734647E0,-4.409918189E-1,-2.323513031E-1,-1.648902893E-1
2.675560647E0,-3.445615470E-1,-2.303071022E-1,-3.983755112E-1
2.686164647E0,-2.606000304E-1,-2.446823120E-1,-4.385623932E-1
2.695408647E0,-1.162906289E-1,-2.124795914E-1,-4.416732788E-1
2.705474647E0,-3.115174174E-2,-1.520404816E-1,-2.672710419E-1
2.715346647E0,1.196584105E-2,-1.102972031E-1,-1.576251984E-1
2.725433647E0,-2.261984348E-2,-9.423875809E-2,1.035699844E-1
2.739532647E0,-3.185189366E-1,-2.819442749E-2,3.033208847E-1
2.755389647E0,-5.235928297E-1,-1.634073257E-2,3.069534302E-1
2.765338647E0,-8.056293726E-1,9.309434891E-2,3.613491058E-1
2.775392647E0,-1.169092894E0,2.569780350E-1,6.919403076E-1
2.785611647E0,-1.185172677E0,4.813861847E-1,1.136359215E0
2.795599647E0,-1.056049109E0,8.094072342E-1,1.914654732E0
2.805461647E0,-8.006399870E-1,8.704695702E-1,2.738537788E0
2.815602647E0,-3.109350801E-1,1.032020092E0,3.325709343E0
2.825595647E0,1.925970316E-1,1.106601238E0,3.753982544E0
2.835374647E0,8.680112958E-1,1.298549175E0,4.145851135E0
2.845528647E0,1.711444497E0,1.651504517E0,4.359684944E0
2.855448647E0,2.340291500E0,1.744543076E0,4.349315643E0
2.865896647E0,2.909185648E0,1.396652699E0,4.195444107E0
2.875374647E0,3.294755459E0,7.467789650E-1,3.844469070E0
2.885430647E0,3.005207539E0,9.047698975E-2,3.129075050E0
2.895362647E0,2.059793472E0,-4.651026726E-1,2.227116585E0
2.905406647E0,9.425439835E-1,-1.076653004E0,1.418250084E0
2.915397647E0,4.990100861E-2,-1.692326069E0,8.268480301E-1
2.925823647E0,-8.639787436E-1,-2.011831522E0,2.109861374E-1
2.936180647E0,-1.518298388E0,-2.397574902E0,-2.879881859E-1
2.945375647E0,-2.067716360E0,-2.552332401E0,-6.186494827E-1
2.955398647E0,-2.447569370E0,-2.629493713E0,-8.046641350E-1
2.965669647E0,-2.660165548E0,-2.653907061E0,-1.031275749E0
2.975346647E0,-2.681755543E0,-2.653026342E0,-9.609713554E-1
2.985375647E0,-2.557210445E0,-2.489415646E0,-7.901058197E-1
2.995568647E0,-2.060675383E0,-2.535864830E0,-7.215495110E-1
3.005350647E0,-1.357040167E0,-2.480815172E0,-5.258884430E-1
3.015414647E0,-6.474575996E-1,-2.356044292E0,-2.874765396E-1
3.025654647E0,6.987102032E-1,-2.271805763E0,3.984880447E-1
3.035450647E0,5.874187350E-1,-2.109566450E0,9.648451805E-1
3.045877647E0,5.785750151E-1,-1.922411203E0,8.523383141E-1
3.055344647E0,7.562039495E-1,-2.014921188E0,1.031191826E0
3.069593647E0,2.559782267E-1,-1.890935898E0,8.456759453E-1
3.085322647E0,-6.073350906E-1,-2.004371166E0,3.503046036E-1
3.095657647E0,-8.172168732E-1,-1.920180798E0,-1.198148727E-2
3.105404647E0,-8.924666047E-1,-1.783841133E0,-4.498100281E-1
3.116841647E0,-7.672302723E-1,-1.600856781E0,-7.972850800E-1
3.125335647E0,-6.413353682E-1,-1.394727707E0,-1.150400639E0
3.135393647E0,-5.605336428E-1,-1.267532825E0,-1.477659225E0
3.145485647E0,-5.024559498E-1,-1.157487869E0,-1.632511139E0
3.155362647E0,-5.218135118E-1,-1.053922176E0,-1.827790737E0
3.166604647E0,-4.994560778E-1,-9.426479340E-1,-1.967045784E0
3.175324647E0,-2.725136876E-1,-8.492741585E-1,-2.016998291E0
3.185592647E0,-1.147242337E-1,-7.194151878E-1,-2.000430584E0
3.195413647E0,-5.705206096E-2,-5.924224854E-1,-1.860836506E0
3.205465647E0,-1.003909111E-2,-5.684256554E-1,-1.643989563E0
3.219853647E0,-1.972875595E-1,-5.771389008E-1,-1.104135036E0
3.235361647E0,-3.818701506E-1,-5.366754532E-1,-9.122333527E-1
3.245325647E0,-5.317280293E-1,-5.559821129E-1,-7.364439964E-1
3.255322647E0,-6.686140299E-1,-5.440826416E-1,-5.182714462E-1
3.265548647E0,-8.271908760E-1,-4.659261703E-1,-3.985557556E-1
3.275465647E0,-7.720282078E-1,-4.088420868E-1,-2.804913521E-1
3.285481647E0,-6.163226366E-1,-3.632507324E-1,-1.722249985E-1
3.295417647E0,-3.827388883E-1,-2.821846008E-1,6.136989594E-2
3.305413647E0,-1.509152055E-1,-2.113523483E-1,1.757278442E-1
3.315397647E0,5.245208740E-5,-1.562128067E-1,1.885423660E-1
3.325703647E0,-1.952382922E-2,-7.651138306E-2,3.691797256E-1
3.335381647E0,-1.456922889E-1,-3.761291504E-2,5.975685120E-1
3.345429647E0,-1.556844115E-1,1.966381073E-2,8.773241043E-1
3.357218647E0,-1.545221806E-1,6.348609924E-2,1.116564751E0
3.365370647E0,-1.627088189E-1,7.034492493E-2,1.493432045E0
3.375367647E0,-2.145523429E-1,1.677484512E-1,1.833434105E0
3.385372647E0,-2.602308989E-1,2.379674911E-1,2.089942932E0
3.395474647E0,-3.506983519E-1,2.854609489E-1,2.454214096E0
3.405431647E0,-3.932887316E-1,3.990397453E-1,2.810309410E0
3.415353647E0,-3.926389217E-1,5.008220673E-1,3.028819084E0
3.425496647E0,-3.412235379E-1,6.074380875E-1,3.120951653E0
3.435356647E0,-3.155371547E-1,7.549228668E-1,3.110444069E0
3.445883647E0,-3.150929809E-1,9.717793465E-1,2.957042694E0
3.455430647E0,-1.843813658E-1,1.091559887E0,2.625258446E0
3.465341647E0,-8.847177029E-3,1.172456264E0,2.340858459E0
3.475927647E0,2.610147595E-1,1.133149147E0,2.087571144E0
3.485355647E0,5.989368558E-1,9.441051483E-1,1.975532532E0
3.495355647E0,9.034702778E-1,6.431193352E-1,1.991848946E0
3.505337647E0,1.143066168E0,2.012996674E-1,2.040484428E0
3.515493647E0,1.209226608E0,-2.917981148E-1,2.052553177E0
3.525388647E0,9.979341626E-1,-7.355818748E-1,1.946621895E0
3.535430647E0,5.262824893E-1,-1.126256943E0,1.942269325E0
3.546024647E0,9.168839455E-2,-1.537322998E0,1.861900330E0
3.555408647E0,-4.222615063E-1,-1.692810535E0,1.714631081E0
3.565379647E0,-8.565906286E-1,-1.836100817E0,1.365676880E0
3.575526647E0,-1.032265306E0,-2.006605625E0,1.055598259E0
3.585426647E0,-1.099026442E0,-2.054633141E0,7.266845703E-1
3.595962647E0,-1.115711331E0,-1.979337692E0,2.704114914E-1
3.605509647E0,-1.095284581E0,-1.892385960E0,-1.829881668E-1
3.615348647E0,-1.021723509E0,-1.895638466E0,-7.016372681E-1
3.625433647E0,-9.831642509E-1,-1.821769476E0,-1.149978638E0
3.635398647E0,-9.181994796E-1,-1.804106951E0,-1.555209160E0
3.645379647E0,-8.065757751E-1,-1.830821514E0,-1.806183815E0
3.655358647E0,-6.961720586E-1,-1.812670231E0,-1.883364677E0
3.666963647E0,-4.996561706E-1,-1.862621307E0,-1.736820221E0
3.675405647E0,-2.850987315E-1,-1.953248024E0,-1.366524220E0
3.685368647E0,-1.009247899E-1,-2.125725031E0,-8.751025200E-1
3.695309647E0,-8.045570552E-2,-2.201797009E0,-2.637472153E-1
3.705408647E0,-1.723189503E-1,-2.283185244E0,3.007755280E-1
3.715518647E0,-3.660916090E-1,-2.283058882E0,8.046722412E-1
3.725574647E0,-5.911734700E-1,-2.245138884E0,1.104711533E0
3.735338647E0,-7.574099898E-1,-2.223011017E0,1.197609901E0
3.745309647E0,-9.828701615E-1,-2.046846151E0,1.151830673E0
3.755630647E0,-1.009493113E0,-1.936009645E0,9.458417892E-1
3.765370647E0,-8.929255009E-1,-1.838921547E0,7.625961304E-1
3.775390647E0,-7.606891394E-1,-1.623409748E0,4.341030121E-1
3.785402647E0,-5.773134232E-1,-1.417616367E0,2.305889130E-2
3.795341647E0,-3.885714412E-1,-1.267346382E0,-4.568729401E-1
3.805540647E0,-2.907158136E-1,-1.141819000E0,-9.530510902E-1
3.815359647E0,-2.519698441E-1,-1.022027969E0,-1.296739578E0
3.825346647E0,-2.999047041E-1,-9.106793404E-1,-1.684965611E0
3.835430647E0,-3.480371833E-1,-8.390383720E-1,-1.990403652E0
3.845600647E0,-5.291917324E-1,-7.292108536E-1,-2.130726814E0
3.855385647E0,-7.219338417E-1,-6.182837486E-1,-2.311003685E0
3.865427647E0,-8.921388388E-1,-5.087037086E-1,-2.243751049E0
3.875371647E0,-9.957271814E-1,-3.122472763E-1,-1.936269760E0
3.885436647E0,-8.587253094E-1,-2.210850716E-1,-1.412806034E0
3.895325647E0,-6.414963007E-1,-1.261267662E-1,-9.318757057E-1
3.905520647E0,-4.641082585E-1,-8.947038651E-2,-5.081224442E-1
3.915763647E0,-3.491311371E-1,3.411531448E-2,-2.127714157E-1
3.925736647E0,-2.852358818E-1,1.510629654E-1,1.007986069E-1
3.935355647E0,-3.110051155E-1,2.969918251E-1,3.059711456E-1
3.945504647E0,-2.844941914E-1,3.738636971E-1,3.678264618E-1
3.955416647E0,-1.924487203E-1,4.206399918E-1,4.947195053E-1
3.965474647E0,1.218579859E-1,3.735604286E-1,7.604570389E-1
3.975530647E0,3.499053121E-1,3.828659058E-1,1.026436806E0
3.985530647E0,3.672271967E-1,4.684109688E-1,1.340354919E0
3.995528647E0,3.672942519E-1,5.442976952E-1,1.408303261E0
4.005831647E0,4.613427520E-1,5.557274818E-1,1.380341530E0
4.015498647E0,4.952100515E-1,5.556836128E-1,1.192050934E0
4.025535647E0,4.227552414E-1,5.540056229E-1,9.332332611E-1
4.035440647E0,2.833163142E-1,5.734338760E-1,7.441291809E-1
4.045516647E0,1.166462451E-1,6.089673042E-1,6.168241501E-1
4.055406647E0,-8.889481425E-2,6.861505508E-1,6.310615540E-1
4.065392647E0,-1.730759144E-1,7.090349197E-1,6.969251633E-1
4.075392647E0,-1.868756711E-1,8.496189117E-1,1.030362129E0
4.085451647E0,-1.848492026E-2,9.706816673E-1,1.431612968E0
4.095684647E0,3.023463488E-1,1.091270924E0,1.873198509E0
4.105340647E0,5.502028465E-1,1.232963562E0,2.382966042E0
4.116679647E0,6.138925552E-1,1.339328289E0,2.820959091E0
4.125470647E0,5.546931624E-1,1.450930595E0,3.280143738E0
4.135544647E0,3.653508127E-1,1.594911575E0,3.466977119E0
4.146123647E0,3.705981970E-1,1.627265453E0,3.515981674E0
4.155361647E0,7.015225887E-1,1.387457848E0,3.370074272E0
4.165620647E0,1.196482658E0,9.859924316E-1,3.149673462E0
4.175608647E0,1.704478264E0,4.922919273E-1,3.009974480E0
4.185372647E0,2.182834864E0,3.005504608E-3,2.805107117E0
4.195364647E0,2.235867500E0,-4.646310806E-1,2.503924370E0
4.206262647E0,1.997119784E0,-9.648034573E-1,2.135862350E0
4.216045647E0,1.357164860E0,-1.409586191E0,1.627468109E0
4.225484647E0,3.950572014E-1,-1.657741785E0,1.150954247E0
4.235403647E0,-4.225488007E-1,-1.942898512E0,7.547130585E-1
4.245507647E0,-9.075797200E-1,-2.262711763E0,4.242849350E-1
4.255548647E0,-1.014305472E0,-2.515092373E0,1.798181534E-1
4.265477647E0,-1.169243455E0,-2.391397238E0,-1.517677307E-2
4.275549647E0,-1.242234707E0,-2.197807550E0,-2.639770508E-1
4.285623647E0,-1.188494086E0,-2.187454700E0,-6.664514542E-1
4.295377647E0,-1.089214325E0,-2.205707550E0,-1.105008125E0
4.305374647E0,-9.911570549E-1,-2.077064037E0,-1.319782257E0
4.315388647E0,-8.227172494E-1,-1.953331232E0,-1.464182377E0
4.325449647E0,-4.042472839E-1,-1.853857994E0,-1.507726669E0
4.335547647E0,1.038054675E-1,-1.810060978E0,-1.561463833E0
4.345496647E0,4.990119934E-1,-1.762665987E0,-1.424588680E0
4.356175647E0,7.960374951E-1,-1.678182125E0,-1.254685402E0
4.365405647E0,8.929154873E-1,-1.637565613E0,-1.063164711E0
4.375408647E0,7.496596575E-1,-1.762595892E0,-8.737258911E-1
4.385390647E0,4.551222026E-1,-1.809069872E0,-8.841452599E-1
4.395383647E0,1.662850678E-1,-1.799484491E0,-9.323902130E-1
4.405391647E0,-3.181184232E-1,-1.661701202E0,-9.841628075E-1
4.415343647E0,-4.582114220E-1,-1.575928926E0,-1.154381752E0
4.425546647E0,-5.016428232E-1,-1.403803110E0,-1.313970089E0
4.435761647E0,-4.218783379E-1,-1.152614117E0,-1.518652439E0
4.445435647E0,-2.229285240E-1,-1.005423546E0,-1.802383900E0
4.456820647E0,-1.482647657E-2,-7.996850014E-1,-1.930838108E0
4.465524647E0,1.801852584E-1,-5.985445976E-1,-2.129905224E0
4.475951647E0,4.288981557E-1,-5.242676735E-1,-2.308203697E0
4.485415647E0,5.410442352E-1,-4.636998177E-1,-2.452126980E0
4.495474647E0,4.546830058E-1,-3.409438133E-1,-2.652038097E0
4.506098647E0,2.330325842E-1,-2.523512840E-1,-2.656702042E0
4.515468647E0,5.747795105E-3,-1.314287186E-1,-2.463138580E0
4.525781647E0,-1.595613956E-1,-9.386062622E-3,-2.133313656E0
4.535390647E0,-1.072050333E-1,-1.825809479E-3,-1.826396465E0
4.545472647E0,-1.098042727E-1,5.058288574E-2,-1.620448112E0
4.555477647E0,-1.438753605E-1,1.149272919E-1,-1.447266102E0
4.565594647E0,-2.576426268E-1,2.340102196E-1,-1.230857372E0
4.575591647E0,-3.989288807E-1,2.105088234E-1,-1.046365738E0
4.585503647E0,-4.555807114E-1,2.190341949E-1,-7.886123657E-1
4.595370647E0,-4.238989353E-1,2.011880875E-1,-5.544991493E-1
4.606055647E0,-3.649398088E-1,9.571456909E-2,-4.216871262E-1
4.615444647E0,-4.035626650E-1,2.038583755E-1,-1.222963333E-1
4.625554647E0,-6.957641840E-1,3.993892670E-2,-7.032585144E-2
4.635371647E0,-1.515938878E0,-2.445983887E-1,2.498350143E-1
4.645376647E0,-2.072818756E0,-2.747387886E-1,7.723054886E-1
4.655539647E0,-1.318670869E0,-1.462378502E-1,1.572774887E0
4.665688647E0,-4.978260994E-1,-3.086862564E-1,2.218339920E0
4.675838647E0,-7.166804075E-1,8.222293854E-2,2.372287750E0
4.685435647E0,-1.260252476E0,7.140541077E-1,2.705408096E0
4.695459647E0,-1.730128288E0,1.254463196E0,3.003962517E0
4.708035647E0,-1.461552858E0,1.073246956E0,3.435596466E0
4.725388647E0,-4.272317886E-1,7.095894814E-1,3.131981850E0
4.735378647E0,-4.022620916E-1,1.180827618E0,3.202962875E0
4.745543647E0,-2.123918533E-1,1.470341682E0,3.311386108E0
4.755371647E0,9.717941284E-4,1.672026634E0,3.423209190E0
4.765358647E0,1.514751911E-1,1.812952042E0,3.511027336E0
4.775374647E0,5.395292640E-1,1.483754158E0,4.000404358E0
4.785341647E0,7.798814774E-1,1.482199192E0,4.234854698E0
4.796698647E0,9.237164259E-1,8.749628067E-1,4.585347176E0
4.805362647E0,9.080796242E-1,4.353244305E-1,4.273651123E0
4.815812647E0,5.288231969E-1,-1.099333763E-1,4.038249969E0
4.825609647E0,3.839755058E-2,-6.494760513E-1,3.943172455E0
4.835398647E0,-4.545099735E-1,-1.287924051E0,3.567934036E0
4.845447647E0,-8.905662298E-1,-1.381138086E0,3.127138138E0
4.855411647E0,-1.226749420E0,-1.722459555E0,2.108379364E0
4.865415647E0,-1.348588228E0,-2.014608383E0,1.297791481E0
4.875640647E0,-1.321373105E0,-2.169472218E0,5.031290054E-1
4.885489647E0,-1.204238415E0,-2.217258930E0,-6.871795654E-2
4.895443647E0,-9.960491657E-1,-2.259322166E0,-6.542320251E-1
4.905624647E0,-8.717283010E-1,-2.237703323E0,-1.142632484E0
4.915467647E0,-8.940365314E-1,-2.244941950E0,-1.603208065E0
4.926202647E0,-6.462159157E-1,-2.063274622E0,-1.897949219E0
4.935391647E0,-6.794412136E-1,-2.126685381E0,-1.769670010E0
4.945836647E0,-4.255205393E-1,-2.153070688E0,-1.617018700E0
4.955404647E0,-3.640235662E-1,-2.379866362E0,-1.621933937E0
4.965418647E0,-2.087336779E-1,-2.364058733E0,-1.542241096E0
4.975460647E0,-1.048302650E-2,-2.531688452E0,-1.369176388E0
4.985459647E0,4.676580429E-2,-2.654173851E0,-1.202087879E0
4.995362647E0,-5.786657333E-3,-2.600287199E0,-9.840512276E-1
5.005577647E0,-1.210408211E-1,-2.556606054E0,-7.297601700E-1
5.015445647E0,-1.607489586E-1,-2.544780493E0,-5.000362396E-1
5.025633647E0,-2.745535374E-1,-2.461101294E0,-3.109674454E-1
5.035392647E0,-3.781263828E-1,-2.343195915E0,-2.600727081E-1
5.045501647E0,-3.834224939E-1,-2.273495197E0,-2.837629318E-1
5.055471647E0,-3.413664103E-1,-2.194964170E0,-4.438638687E-1
5.065315647E0,-3.571319580E-1,-2.219215870E0,-7.345533371E-1
5.075339647E0,-3.678637743E-1,-2.015267611E0,-8.167228699E-1
5.085324647E0,-1.402146816E-1,-1.810910940E0,-1.062422752E0
5.095474647E0,6.546008587E-2,-1.843832731E0,-1.002004623E0
5.105623647E0,1.238684654E-1,-1.600326538E0,-1.225521564E0
5.115305647E0,1.825148463E-1,-1.341236115E0,-1.380762577E0
5.125452647E0,3.257989883E-1,-1.203451633E0,-1.489142418E0
5.136246647E0,4.271489978E-1,-1.058527231E0,-1.636385441E0
5.145402647E0,3.808938861E-1,-8.078002930E-1,-1.738819122E0
5.155464647E0,4.212498665E-1,-5.749342442E-1,-1.720027924E0
5.165311647E0,5.473089218E-1,-3.697419167E-1,-1.574279785E0
5.175814647E0,6.289782524E-1,-1.861228943E-1,-1.312044144E0
5.185543647E0,5.760302544E-1,-6.888580322E-2,-9.711217880E-1
5.195622647E0,7.235047817E-1,2.792034149E-1,-5.440282822E-1
5.205398647E0,8.672772050E-1,3.642587662E-1,-9.184932709E-2
5.215426647E0,9.921694994E-1,4.531803131E-1,3.621854782E-1
5.225997647E0,1.021944046E0,4.838624001E-1,7.786016464E-1
5.235389647E0,9.070547819E-1,7.547073364E-1,8.137035370E-1
5.245487647E0,9.441422224E-1,6.715016365E-1,1.221437454E0
5.255575647E0,7.896033525E-1,5.318398476E-1,1.540185928E0
5.265617647E0,5.046337843E-1,5.652914047E-1,1.572852135E0
5.275413647E0,2.085717916E-1,5.928320885E-1,1.621294022E0
5.285504647E0,-1.854091883E-2,5.380454063E-1,1.787824631E0
5.296468647E0,-2.201806903E-1,5.961337090E-1,2.107088089E0
5.305355647E0,-4.848609567E-1,7.220072746E-1,2.535112381E0
5.315338647E0,-6.994501948E-1,8.634977341E-1,2.985333443E0
5.325454647E0,-8.308990598E-1,1.079044342E0,3.492379189E0
5.335446647E0,-8.427342176E-1,1.296262741E0,3.793463707E0
5.347879647E0,-2.644065022E-1,1.292870998E0,4.121020317E0
5.365321647E0,1.865178347E-2,1.243544579E0,4.214953423E0
5.375515647E0,2.354952395E-1,1.244709015E0,4.217757225E0
5.385534647E0,5.723092556E-1,1.163840771E0,4.236401558E0
5.396345647E0,1.093674660E0,7.684063911E-1,4.421497345E0
5.405367647E0,1.440576434E0,1.399803162E-1,4.890975952E0
5.415406647E0,1.370673895E0,-4.176259041E-1,4.731125832E0
5.425555647E0,1.038502216E0,-9.301030636E-1,4.028525352E0
5.435494647E0,4.035550654E-1,-1.408167839E0,3.117234230E0
5.445310647E0,-2.938709557E-1,-1.802642345E0,2.183861732E0
5.455570647E0,-7.777148485E-1,-2.226647139E0,1.428409576E0
5.465556647E0,-1.579631090E0,-2.656849861E0,6.010150909E-2
5.475386647E0,-1.722804427E0,-2.826257706E0,-5.434312820E-1
5.485367647E0,-1.803157926E0,-2.869829655E0,-1.189928532E0
5.495373647E0,-1.784574509E0,-2.793740988E0,-1.720115662E0
5.505469647E0,-1.516851425E0,-2.788830280E0,-2.103509903E0
5.515384647E0,-9.486650825E-1,-2.819158316E0,-2.227343082E0
5.525415647E0,-3.183376789E-1,-2.788500309E0,-2.139435768E0
5.538296647E0,2.633647323E-1,-2.783594370E0,-1.951691628E0
5.555406647E0,1.025044799E0,-2.813256741E0,-1.546433926E0
5.565315647E0,1.067829013E0,-2.769861937E0,-1.362670422E0
5.575337647E0,9.076620340E-1,-2.668649912E0,-1.146485329E0
5.587838647E0,5.612238050E-1,-2.552484989E0,-9.561553001E-1
5.605368647E0,-2.375367284E-1,-2.326012135E0,-8.558864594E-1
5.615357647E0,-5.448515415E-1,-2.215633154E0,-1.082113743E0
5.625858647E0,-7.358403802E-1,-1.957833767E0,-1.642268658E0
5.638218647E0,-6.239895821E-1,-1.859549761E0,-1.778069496E0
5.655391647E0,-3.274738789E-1,-1.398198605E0,-2.070268154E0
5.665626647E0,-1.345106363E-1,-1.213115454E0,-2.510479450E0
5.675527647E0,1.713777781E-1,-1.091071844E0,-2.809164524E0
5.685536647E0,3.471782207E-1,-9.690122604E-1,-2.949244976E0
5.696154647E0,3.841856122E-1,-7.783946991E-1,-2.933188915E0
5.705517647E0,4.290491939E-1,-6.119813919E-1,-2.804348946E0
5.715391647E0,4.347962737E-1,-4.889874458E-1,-2.618077278E0
5.725425647E0,3.007503152E-1,-3.858017921E-1,-2.230213165E0
5.735921647E0,9.776532650E-2,-2.794857025E-1,-1.726784706E0
5.745333647E0,-3.151011467E-2,-2.116413116E-1,-1.142747879E0
5.755417647E0,-1.141465902E-1,-1.910800934E-1,-5.762705803E-1
5.765432647E0,-2.121678591E-1,-1.125841141E-1,-4.566764832E-2
5.775368647E0,-2.580293417E-1,2.752017975E-2,5.004091263E-1
5.785460647E0,-1.823736429E-1,1.000204086E-1,1.013812065E0
5.795695647E0,-8.324718475E-2,2.087850571E-1,1.208111763E0
5.805346647E0,9.407258034E-2,4.451532364E-1,1.365071297E0
5.815311647E0,4.116387367E-1,3.738403320E-1,1.716164589E0
5.825393647E0,4.930388331E-1,3.179063797E-1,2.094048500E0
5.835517647E0,4.384707212E-1,3.995709419E-1,2.139787674E0
5.846133647E0,1.870864630E-1,4.150352478E-1,2.033506393E0
5.855349647E0,-9.730923176E-2,4.885134697E-1,1.710244179E0
5.865528647E0,-3.795934916E-1,4.563941956E-1,1.527915955E0
5.875389647E0,-5.647031069E-1,4.182386398E-1,1.519251823E0
5.885949647E0,-7.014718056E-1,3.856258392E-1,1.699354172E0
5.895919647E0,-7.251250744E-1,3.890438080E-1,1.906323433E0
5.905611647E0,-6.296068430E-1,3.830904961E-1,2.178631783E0
5.915546647E0,-4.651795626E-1,4.793910980E-1,2.345934868E0
5.925943647E0,-3.008821011E-1,6.815447807E-1,2.545145988E0
5.935396647E0,1.596657038E-1,1.080757141E0,2.213408470E0
5.945460647E0,3.976213932E-2,1.405121326E0,2.598396301E0
5.955536647E0,2.287483215E-1,1.137110233E0,3.588049889E0
5.965374647E0,3.403953910E-1,1.686807156E0,2.779765129E0
5.975653647E0,-1.423600912E-1,2.350129128E0,2.525939941E0
5.985339647E0,3.043274879E-1,1.284540176E0,3.525703430E0
5.995726647E0,5.208990574E-1,1.245358944E0,3.612502098E0
6.005406647E0,4.819782972E-1,1.254076481E0,4.003596306E0
6.015377647E0,8.130271435E-1,-2.732572556E-1,4.144863129E0
6.025463647E0,4.834135175E-1,-8.992300034E-1,4.260046959E0
6.035394647E0,-5.992770195E-3,-1.533921242E0,4.072978973E0
6.045608647E0,-5.630333424E-1,-2.025946379E0,3.511430740E0
6.055335647E0,-1.062362671E0,-2.394931316E0,2.672849655E0
6.065564647E0,-1.464274168E0,-2.635704994E0,1.676254272E0
6.075345647E0,-1.795298934E0,-2.748909950E0,6.852426529E-1
6.085506647E0,-1.887905717E0,-2.705965281E0,-8.942413330E-2
6.095787647E0,-1.818045259E0,-2.600673199E0,-7.448949814E-1
6.105381647E0,-1.680106640E0,-2.486642122E0,-1.397645950E0
6.115391647E0,-1.435060620E0,-2.438276768E0,-2.111855984E0
6.126929647E0,-1.174592972E0,-2.466206551E0,-2.757966995E0
6.135349647E0,-9.112308025E-1,-2.321357489E0,-3.294268131E0
6.145342647E0,-6.695690155E-1,-2.318756342E0,-3.467241287E0
6.156106647E0,-3.613936901E-1,-2.287127256E0,-3.574900150E0
6.165499647E0,-1.081726551E-1,-2.336648464E0,-3.404512882E0
6.175389647E0,2.061027288E-2,-2.412079573E0,-2.961301804E0
6.185563647E0,3.082638979E-2,-2.496020794E0,-2.317162037E0
6.195659647E0,-4.683077335E-3,-2.576959372E0,-1.497775555E0
6.206343647E0,3.333687782E-3,-2.581768990E0,-4.101743698E-1
6.215400647E0,2.930104733E-2,-2.644741774E0,4.757680893E-1
6.225604647E0,3.389537334E-2,-2.712748766E0,9.723215103E-1
6.235418647E0,-1.226497889E-1,-2.650069237E0,1.142197609E0
6.245772647E0,-3.705095649E-1,-2.524066925E0,1.041327477E0
6.255491647E0,-5.178583860E-1,-2.383892536E0,8.258171082E-1
6.265678647E0,-5.306470990E-1,-2.207483530E0,5.628681183E-1
6.275317647E0,-4.428882599E-1,-1.983421803E0,2.941303253E-1
6.288753647E0,-2.138181329E-1,-1.789420843E0,-1.732349396E-2
6.305507647E0,3.537508845E-1,-1.539624929E0,-9.071497917E-1
6.315409647E0,5.119746327E-1,-1.405580521E0,-1.399637699E0
6.325683647E0,5.496391058E-1,-1.210170507E0,-1.768410683E0
6.335423647E0,5.481640697E-1,-9.900000095E-1,-1.984179020E0
6.345353647E0,5.598011613E-1,-7.747628689E-1,-2.093373775E0
6.355406647E0,5.215594172E-1,-5.353279114E-1,-2.001358509E0
6.365604647E0,5.075292587E-1,-3.089241982E-1,-1.831317425E0
6.375404647E0,4.501141310E-1,-1.234712601E-1,-1.626991749E0
6.385497647E0,3.805718422E-1,3.497838974E-2,-1.334199905E0
6.395374647E0,3.124302924E-1,1.677870750E-1,-1.093175888E0
6.406029647E0,2.552504539E-1,3.262658119E-1,-8.354086876E-1
6.415559647E0,2.599954009E-1,4.510979652E-1,-5.520820618E-1
6.425524647E0,3.588919640E-1,4.279074669E-1,-2.173118591E-1
6.436459647E0,4.076953232E-1,5.443029404E-1,-7.736015320E-2
6.445471647E0,5.308524370E-1,5.047702789E-1,4.004364014E-1
6.455544647E0,5.583866239E-1,4.779667854E-1,9.270486832E-1
6.465333647E0,4.107969999E-1,5.194511414E-1,1.375839233E0
6.475380647E0,1.483206153E-1,5.556092262E-1,1.775190353E0
6.485608647E0,-1.924056113E-1,5.039734840E-1,2.069968224E0
6.495570647E0,-6.270760894E-1,4.482455254E-1,2.324749947E0
6.505527647E0,-1.113903880E0,4.210939407E-1,2.493635178E0
6.515374647E0,-1.538821101E0,4.044990540E-1,2.542197227E0
6.525608647E0,-1.851850033E0,4.141631126E-1,2.438548088E0
6.538516647E0,-2.041241646E0,6.539139748E-1,2.517082214E0
6.555338647E0,-1.868209243E0,1.184218407E0,2.481396675E0
6.565525647E0,-1.506247878E0,1.386898518E0,2.694144249E0
6.575426647E0,-9.934370518E-1,1.502535343E0,3.018106461E0
6.585570647E0,-3.868574202E-1,1.512747765E0,3.442316055E0
6.596114647E0,1.683545113E-1,1.469336987E0,3.900109291E0
6.605507647E0,5.937802196E-1,1.339303017E0,4.350917816E0
6.615399647E0,9.241738915E-1,1.080829144E0,4.602191925E0
6.625365647E0,1.179165721E0,6.891937256E-1,4.688812256E0
6.635404647E0,1.416545391E0,6.801700592E-2,4.577677727E0
6.645432647E0,1.419951081E0,-5.710980892E-1,4.411945343E0
6.655568647E0,1.155119777E0,-1.054919004E0,4.152200699E0
6.665719647E0,8.187203407E-1,-1.501901388E0,3.510308266E0
6.675401647E0,5.723088384E-1,-2.104653835E0,2.605781555E0
6.685433647E0,4.232343435E-1,-2.765957832E0,1.675545692E0
6.695377647E0,1.527562588E-1,-3.099867821E0,7.880020142E-1
6.705373647E0,-2.786782682E-1,-3.123865843E0,1.162366867E-1
6.715379647E0,-6.197550297E-1,-3.091120720E0,-4.377355576E-1
6.725467647E0,-8.425732851E-1,-3.056489468E0,-1.081185818E0
6.735435647E0,-9.919968843E-1,-2.935381413E0,-1.598852634E0
6.745726647E0,-9.318888187E-1,-2.837683678E0,-2.025046825E0
6.755417647E0,-6.085944176E-1,-2.788971424E0,-2.302175522E0
6.765431647E0,-4.940035939E-2,-2.716262579E0,-2.472655296E0
6.775464647E0,5.417932868E-1,-2.582986355E0,-2.442153454E0
6.785577647E0,1.100494742E0,-2.438740253E0,-2.252077103E0
6.795406647E0,1.489929318E0,-2.316590071E0,-2.017371178E0
6.805619647E0,1.681387186E0,-2.339137554E0,-1.752270699E0
6.815873647E0,1.600042343E0,-2.393655777E0,-1.417508125E0
6.825648647E0,1.233217001E0,-2.374526024E0,-1.124942780E0
6.835407647E0,7.807530165E-1,-2.288944006E0,-7.932772636E-1
6.846188647E0,4.031797349E-1,-2.188945055E0,-5.258812904E-1
6.855796647E0,7.691776752E-2,-2.000900745E0,-3.074817657E-1
6.865613647E0,-1.078039408E-1,-1.801039457E0,-4.297447205E-1
6.875352647E0,-3.109699488E-2,-1.645763874E0,-7.585439682E-1
6.885640647E0,1.655151844E-1,-1.512655735E0,-1.046445370E0
6.895357647E0,2.978044152E-1,-1.305227757E0,-1.308157444E0
6.905566647E0,4.029377401E-1,-1.079354763E0,-1.598067760E0
6.915768647E0,4.621681273E-1,-8.361406326E-1,-1.944782734E0
6.925936647E0,5.220496655E-1,-6.880121231E-1,-2.247158051E0
6.938937647E0,5.383461714E-1,-5.643725395E-1,-2.234372616E0
6.956630647E0,5.297030210E-1,-3.303785324E-1,-2.003977299E0
6.965382647E0,4.688571990E-1,-2.478623390E-1,-1.841046333E0
6.975699647E0,3.444174826E-1,-1.355776787E-1,-1.683189869E0
6.985396647E0,2.456214428E-1,-4.677963257E-2,-1.534518242E0
6.995994647E0,1.954629421E-1,1.733064651E-2,-1.405801773E0
7.005379647E0,1.363985538E-1,8.070325851E-2,-1.198763371E0
7.015375647E0,1.072378159E-1,1.858344078E-1,-9.356665611E-1
7.026502647E0,1.537939310E-1,3.086428642E-1,-2.519211769E-1
7.035624647E0,1.621443629E-1,3.262534142E-1,-2.631449699E-1
7.045497647E0,1.454222798E-1,3.373355865E-1,9.641742706E-2
7.055360647E0,7.044386864E-2,3.674349785E-1,4.045953751E-1
7.065404647E0,-5.438423157E-2,3.853611946E-1,6.381769180E-1
7.075467647E0,-5.252023339E-1,3.904242516E-1,1.077009201E0
7.085437647E0,-7.689977884E-1,3.878126144E-1,1.312040329E0
7.095629647E0,-9.796120524E-1,4.106154442E-1,1.439326286E0
7.105583647E0,-1.195766211E0,4.666628838E-1,1.688079834E0
7.115927647E0,-1.358425856E0,4.968185425E-1,1.905034065E0
7.125363647E0,-1.538999081E0,5.057020187E-1,2.184048653E0
7.135382647E0,-1.585526347E0,4.678659439E-1,2.364331245E0
7.145372647E0,-1.588929772E0,4.903206825E-1,2.381572723E0
7.155704647E0,-1.567639470E0,6.538596153E-1,2.337083817E0
7.165471647E0,-1.446774721E0,8.059983253E-1,2.327445984E0
7.175383647E0,-1.237500548E0,9.150128365E-1,2.402017593E0
7.185475647E0,-1.071592808E0,1.073812008E0,2.456318855E0
7.195395647E0,-8.771911860E-1,1.140539646E0,2.595152855E0
7.205360647E0,-5.232850909E-1,9.938364029E-1,2.788758278E0
7.215720647E0,-9.579896927E-2,7.734603882E-1,3.069352150E0
7.226730647E0,3.520594239E-1,4.015336037E-1,3.406023979E0
7.235357647E0,7.886863351E-1,-1.503720284E-1,3.626232147E0
7.245346647E0,9.434924126E-1,-7.638206482E-1,3.695161819E0
7.255555647E0,6.855490804E-1,-1.315227985E0,3.550294876E0
7.265389647E0,1.184166670E-1,-1.783577442E0,3.147910118E0
7.275389647E0,-5.932437778E-1,-2.091362476E0,2.575044632E0
7.288699647E0,-1.300035477E0,-2.213725805E0,1.887442589E0
7.305404647E0,-2.199021816E0,-2.159957647E0,6.663455963E-1
7.315349647E0,-2.235107899E0,-2.019350052E0,1.508626938E-1
7.325534647E0,-1.931042075E0,-1.977594852E0,-3.408946991E-1
7.338431647E0,-1.465409279E0,-1.955003500E0,-8.286662102E-1
7.355485647E0,-6.489714384E-1,-1.909861088E0,-1.548555374E0
7.365836647E0,-4.475864172E-1,-1.973454714E0,-1.627247810E0
7.375333647E0,-3.493799865E-1,-2.079184771E0,-1.478314877E0
7.385388647E0,-2.902291417E-1,-2.151855230E0,-1.168068409E0
7.396093647E0,-3.139557838E-1,-2.228126049E0,-8.292150497E-1
7.405339647E0,-4.147685468E-1,-2.254160166E0,-4.465970993E-1
7.415787647E0,-5.730761886E-1,-2.233321905E0,-1.257667542E-1
7.425476647E0,-7.325835824E-1,-2.211485147E0,8.723640442E-2
7.436302647E0,-8.769426346E-1,-2.129797697E0,1.238393784E-1
7.445336647E0,-9.789936543E-1,-2.026805162E0,-2.158546448E-2
7.455574647E0,-9.610064626E-1,-1.947970867E0,-2.319140434E-1
7.465393647E0,-9.055104256E-1,-1.804652452E0,-5.340900421E-1
7.475384647E0,-7.477055192E-1,-1.673875093E0,-7.931346893E-1
7.485320647E0,-5.058941841E-1,-1.569398403E0,-9.549140930E-1
7.495339647E0,-3.369314373E-1,-1.465971470E0,-1.155368805E0
7.505634647E0,-2.683756351E-1,-1.393436432E0,-1.300750732E0
7.515385647E0,-3.307470381E-1,-1.302238941E0,-1.324005604E0
7.525561647E0,-4.755962491E-1,-1.211258888E0,-1.357524395E0
7.540007647E0,-7.170369029E-1,-1.101778030E0,-1.306628227E0
7.555357647E0,-9.578953385E-1,-9.804749489E-1,-1.302923679E0
7.565422647E0,-1.105666399E0,-8.433623314E-1,-1.242235661E0
7.575407647E0,-1.171809554E0,-7.052168846E-1,-1.212105274E0
7.591952647E0,-1.056577921E0,-4.148774147E-1,-1.011598110E0
7.605336647E0,-9.359420538E-1,-2.633776665E-1,-8.706321716E-1
7.616067647E0,-6.279156208E-1,-7.907438278E-2,-4.212813377E-1
7.625608647E0,-5.456408262E-1,7.200241089E-5,-1.673173904E-1
7.635374647E0,-4.370711446E-1,9.317207336E-2,1.846036911E-1
7.645496647E0,-2.901667655E-1,1.259007454E-1,4.702949524E-1
7.655382647E0,-1.409245729E-1,1.523327827E-1,7.023754120E-1
7.665794647E0,-6.236949563E-2,2.066640854E-1,8.407230377E-1
7.675759647E0,-1.485734880E-1,2.220993042E-1,8.354864120E-1
7.689319647E0,-2.553419769E-1,2.356863022E-1,8.186817169E-1
7.705377647E0,-3.292211890E-1,3.188900948E-1,8.033037186E-1
7.715424647E0,-3.448660374E-1,2.991709709E-1,9.223318100E-1
7.725711647E0,-4.189132750E-1,2.910547256E-1,1.048561096E0
7.735965647E0,-5.491620898E-1,3.074226379E-1,1.268306732E0
7.745358647E0,-6.678588390E-1,3.918271065E-1,1.545835495E0
7.755350647E0,-8.325394988E-1,5.354042053E-1,1.925641060E0
7.765332647E0,-7.797199488E-1,6.483263969E-1,2.399077415E0
7.775800647E0,-5.106315613E-1,6.979932785E-1,2.822735786E0
7.785821647E0,-1.526023000E-1,7.673211098E-1,3.172720909E0
7.795521647E0,1.657591611E-1,9.710698128E-1,3.345389366E0
7.805384647E0,4.457038045E-1,1.192374229E0,3.411507607E0
7.815396647E0,7.740420103E-1,1.346916676E0,3.364343643E0
7.825656647E0,1.108950138E0,1.442870140E0,3.281203270E0
7.835384647E0,1.582234979E0,1.334284306E0,3.145707130E0
7.845468647E0,2.122016668E0,1.068044186E0,2.930976868E0
7.855950647E0,2.566163063E0,6.795296669E-1,2.635947227E0
7.865468647E0,2.798696041E0,1.532697678E-1,2.364184380E0
7.875423647E0,2.728000164E0,-3.857116699E-1,2.154424667E0
7.885472647E0,2.374058962E0,-9.655799866E-1,1.898157120E0
7.895419647E0,1.703986168E0,-1.552935123E0,1.630472183E0
7.905583647E0,9.711673260E-1,-2.013846874E0,1.377316475E0
7.915398647E0,2.888558209E-1,-2.365547895E0,1.095168114E0
7.925390647E0,-2.296503335E-1,-2.711755514E0,7.352762222E-1
7.935840647E0,-6.931574941E-1,-2.822318316E0,4.465837479E-1
7.945532647E0,-1.103308320E0,-2.670130014E0,1.847248077E-1
7.955429647E0,-1.264169574E0,-2.509567022E0,-5.312824249E-2
7.965365647E0,-1.090134859E0,-2.446120024E0,-2.671594620E-1
7.975368647E0,-6.583017111E-1,-2.432887077E0,-5.351734161E-1
7.985738647E0,-9.643733501E-3,-2.418299675E0,-5.273442268E-1
7.995440647E0,6.409339905E-1,-2.352810383E0,-6.563520432E-1
8.005714647E0,1.172262788E0,-2.246079683E0,-6.939935684E-1
8.016017647E0,1.607029080E0,-2.083322525E0,-6.574945450E-1
8.025434647E0,1.831264496E0,-1.930572987E0,-5.442709923E-1
8.035453647E0,1.846351862E0,-1.825292349E0,-3.635478020E-1
8.045745647E0,1.559347391E0,-1.768912792E0,-4.014625549E-1
8.055380647E0,1.072569966E0,-1.730019808E0,-5.978441238E-1
8.065403647E0,5.154700279E-1,-1.638024330E0,-8.716359138E-1
8.075436647E0,-8.348524570E-4,-1.535106659E0,-1.264649868E0
8.085831647E0,-3.525137901E-1,-1.429085970E0,-1.641762733E0
8.095340647E0,-5.056214333E-1,-1.372450829E0,-1.877313614E0
8.105497647E0,-4.847472310E-1,-1.290045738E0,-1.987492085E0
8.115307647E0,-3.003812730E-1,-1.161640644E0,-2.054719925E0
8.125378647E0,-4.689455032E-3,-1.004284382E0,-2.003206730E0
8.135778647E0,7.690250874E-1,-8.362617493E-1,-2.021068573E0
8.145368647E0,7.699503899E-1,-8.386869431E-1,-1.985861301E0
8.155367647E0,1.015728235E0,-7.262415886E-1,-1.945049286E0
8.165944647E0,8.529505730E-1,-6.759080887E-1,-1.737370491E0
8.175374647E0,6.392835379E-1,-6.536002159E-1,-1.452993870E0
8.188985647E0,4.646263719E-1,-6.497478485E-1,-1.141730309E0
8.205370647E0,1.215997934E-1,-5.398015976E-1,-5.438990593E-1
8.215394647E0,7.732379436E-2,-4.068422318E-1,-2.058887482E-1
8.225438647E0,2.156403661E-1,-3.021731377E-1,1.059722900E-1
8.235507647E0,4.414202869E-1,-1.898703575E-1,3.626985550E-1
8.245575647E0,6.628788114E-1,-1.697444916E-2,4.819269180E-1
8.255356647E0,8.580434918E-1,1.835727692E-1,5.659074783E-1
8.265352647E0,9.800977111E-1,3.522343636E-1,5.844087601E-1
8.275491647E0,9.782587886E-1,5.176305771E-1,5.064783096E-1
8.285755647E0,9.189826846E-1,5.973305702E-1,4.570837021E-1
8.295311647E0,7.867596149E-1,6.348514557E-1,4.463081360E-1
8.305489647E0,5.963706374E-1,6.876382828E-1,4.972906113E-1
8.315385647E0,3.946972787E-1,6.994490623E-1,5.907230377E-1
8.325392647E0,1.697267294E-1,6.854314804E-1,7.918634415E-1
8.335418647E0,-7.768332958E-3,6.485519409E-1,1.027478218E0
8.345755647E0,-6.106513739E-2,4.891085625E-1,1.347634315E0
8.355491647E0,-1.032016873E-1,3.398766518E-1,1.713405609E0
8.365972647E0,-2.707479596E-1,3.965091705E-1,2.002643585E0
8.375359647E0,-4.407587647E-1,5.698366165E-1,2.266324043E0
8.385383647E0,-5.181614757E-1,7.588582039E-1,2.489380836E0
8.395317647E0,-4.536201358E-1,9.695081711E-1,2.752445221E0
8.405522647E0,-2.913380265E-1,1.171545029E0,2.978521347E0
8.416442647E0,-9.812033176E-2,1.357900143E0,3.090489388E0
8.425431647E0,-3.578245640E-3,1.568422318E0,3.083482742E0
8.435373647E0,3.381854296E-2,1.727608681E0,3.002358437E0
8.445361647E0,6.143921614E-2,1.792029381E0,2.854167938E0
8.455358647E0,2.724813223E-1,1.661286831E0,2.559638023E0
8.465445647E0,5.696989894E-1,1.400798798E0,2.212066650E0
8.475336647E0,8.169345260E-1,1.064895630E0,1.975507736E0
8.485596647E0,9.814853072E-1,5.789961815E-1,1.995261192E0
8.495489647E0,9.856050611E-1,-2.202081680E-2,2.113214493E0
8.505541647E0,7.343046069E-1,-7.272667885E-1,2.060525894E0
8.515786647E0,2.880383730E-1,-1.439808607E0,1.942338943E0
8.525391647E0,-2.350417972E-1,-2.026772022E0,1.787338257E0
8.535415647E0,-9.134060740E-1,-2.364656210E0,1.568036079E0
8.548460647E0,-2.106804609E0,-2.679087400E0,1.036991119E0
8.557754647E0,-2.106804609E0,-2.679087400E0,1.036991119E0
8.575426647E0,-2.550186396E0,-2.482106209E0,4.890089035E-1
8.585351647E0,-2.348567009E0,-2.381908655E0,1.058568954E-1
8.597265647E0,-1.892807126E0,-2.345809221E0,-3.810677528E-1
8.605505647E0,-1.403897166E0,-2.310223579E0,-8.680438995E-1
8.615390647E0,-9.020121098E-1,-2.243380070E0,-1.279237747E0
8.625505647E0,-4.002659321E-1,-2.197402477E0,-1.439260960E0
8.635573647E0,1.072853506E-1,-2.177357674E0,-1.387959003E0
8.645332647E0,5.510296822E-1,-2.197898865E0,-1.155959129E0
8.655392647E0,8.450679779E-1,-2.241515398E0,-7.890739441E-1
8.665452647E0,9.417784810E-1,-2.298370361E0,-3.829641342E-1
8.675504647E0,5.348007083E-1,-2.270619154E0,-6.278038025E-3
8.685645647E0,1.841214597E-1,-2.116742373E0,-1.117706299E-3
8.695362647E0,-1.785504222E-1,-1.956422806E0,-1.107120514E-1
8.705508647E0,-4.172798097E-1,-1.855928183E0,-4.021310806E-1
8.715366647E0,-4.783582091E-1,-1.713692904E0,-6.555995941E-1
8.725446647E0,-4.438700080E-1,-1.566044331E0,-9.522118568E-1
8.738884647E0,-3.069017529E-1,-1.471103430E0,-1.245285034E0
8.755336647E0,1.763221920E-1,-1.271223068E0,-1.447028637E0
8.765930647E0,3.771687150E-1,-1.229793072E0,-1.398894310E0
8.775391647E0,4.019564390E-1,-1.139584064E0,-1.271654606E0
8.785388647E0,2.430265248E-1,-1.005210876E0,-1.178065777E0
8.795415647E0,1.945671439E-2,-8.772120476E-1,-1.125468254E0
8.805748647E0,-1.564637721E-1,-7.415204048E-1,-1.074629307E0
8.815299647E0,-2.631846368E-1,-5.721755028E-1,-1.003095150E0
8.825493647E0,-3.145149946E-1,-4.024572372E-1,-9.594640732E-1
8.837339647E0,-2.684146166E-1,-2.661738396E-1,-8.618350029E-1
8.845437647E0,-2.122038007E-1,-1.378479004E-1,-7.658267021E-1
8.855455647E0,-1.468294263E-1,-2.482795715E-2,-6.581029892E-1
8.865421647E0,-7.315146923E-2,3.790569305E-2,-5.022921562E-1
8.875358647E0,1.288795471E-2,7.172870636E-2,-2.959871292E-1
8.888683647E0,1.516737938E-1,9.265804291E-2,-2.255058289E-2
8.905447647E0,2.675239742E-1,1.640391350E-1,4.856510162E-1
8.915337647E0,1.868872941E-1,1.822843552E-1,7.074108124E-1
8.925368647E0,-1.110491157E-2,1.977343559E-1,9.646434784E-1
8.935814647E0,-2.727174461E-1,2.529449463E-1,1.188188553E0
8.945651647E0,-5.212950706E-1,2.822942734E-1,1.329901695E0
8.955352647E0,-6.571744680E-1,2.478690147E-1,1.454110146E0
8.965361647E0,-7.526949048E-1,2.193379402E-1,1.570189476E0
8.975365647E0,-8.223252296E-1,2.556943893E-1,1.718427658E0
8.985396647E0,-8.574916720E-1,3.172035217E-1,1.927895546E0
8.995616647E0,-8.270894289E-1,3.904690742E-1,2.218258858E0
9.005522647E0,-6.539525986E-1,5.451126099E-1,2.556654930E0
9.015417647E0,-3.129622340E-1,6.379590034E-1,2.898221016E0
9.025431647E0,2.070508897E-2,7.282638550E-1,3.016777039E0
9.035569647E0,2.300556898E-1,9.187817574E-1,2.908098221E0
9.045372647E0,4.361811876E-1,1.023518562E0,2.943990707E0
9.057423647E0,6.333461404E-1,1.130284309E0,2.835413933E0
9.070492647E0,1.354982734E0,9.865951538E-1,2.732889175E0
9.085380647E0,1.796274781E0,7.592082024E-1,2.673252106E0
9.095488647E0,2.193660498E0,3.651227951E-1,2.763727188E0
9.107630647E0,2.452159882E0,-1.790614128E-1,2.732269287E0
9.125337647E0,2.154046059E0,-1.279673576E0,2.441431046E0
9.135377647E0,1.480424166E0,-1.777964830E0,2.077306747E0
9.145451647E0,6.875906587E-1,-2.018229008E0,1.681411743E0
9.158078647E0,-3.200008869E-1,-2.515578747E0,8.611001968E-1
9.175356647E0,-6.182105541E-1,-2.608658552E0,4.039688110E-1
9.185410647E0,-8.835521936E-1,-2.496954203E0,-4.722404480E-2
9.195447647E0,-8.448075652E-1,-2.413882494E0,-4.564418793E-1
9.205483647E0,-4.312155545E-1,-2.413518667E0,-8.240756989E-1
9.215412647E0,9.387364388E-1,-2.333224297E0,-1.155455112E0
9.225395647E0,1.387882710E0,-2.225950480E0,-1.213224888E0
9.235450647E0,1.634128094E0,-2.088186979E0,-1.149758339E0
9.249587647E0,1.663048029E0,-1.891170740E0,-1.072919369E0
9.265518647E0,1.303218842E0,-1.706503868E0,-8.302316666E-1
9.276359647E0,9.296228886E-1,-1.691423416E0,-7.419595718E-1
9.285367647E0,4.597896338E-1,-1.632267237E0,-7.588000298E-1
9.295374647E0,2.498510480E-2,-1.517371893E0,-8.574476242E-1
9.305334647E0,-2.211568952E-1,-1.432747841E0,-9.850773811E-1
9.315345647E0,-3.219079077E-1,-1.329884052E0,-1.103519440E0
9.328385647E0,-3.174502254E-1,-1.223113060E0,-1.252991676E0
9.345643647E0,-8.377182484E-2,-9.375348091E-1,-1.483390331E0
9.355396647E0,1.699415445E-1,-8.224763870E-1,-1.609089851E0
9.365332647E0,4.046437740E-1,-7.517271042E-1,-1.676881313E0
9.376535647E0,6.101658940E-1,-6.745371819E-1,-1.704231262E0
9.385570647E0,6.916308403E-1,-6.020259857E-1,-1.664751053E0
9.395850647E0,6.688707471E-1,-5.418581963E-1,-1.521177769E0
9.405618647E0,5.435584784E-1,-4.509778023E-1,-1.320817947E0
9.415494647E0,4.275277853E-1,-3.180518150E-1,-1.010073662E0
9.425349647E0,4.061185420E-1,-2.298831940E-1,-6.196479797E-1
9.435588647E0,4.689674973E-1,-1.648874283E-1,-2.467017174E-1
9.445428647E0,5.038328767E-1,-6.487083435E-2,1.212339401E-1
9.455426647E0,5.253086686E-1,3.387212753E-2,3.689746857E-1
9.465367647E0,5.439977050E-1,1.381549835E-1,5.344181061E-1
9.475426647E0,6.002347469E-1,2.504687309E-1,5.701475143E-1
9.486808647E0,6.963546872E-1,3.595323563E-1,3.662796021E-1
9.495371647E0,8.130706549E-1,3.661761284E-1,2.297964096E-1
9.505345647E0,8.483424783E-1,4.115653038E-1,1.035995483E-1
9.515361647E0,7.843483090E-1,4.935865402E-1,-6.564807892E-2
9.525571647E0,6.704592109E-1,5.389890671E-1,-1.397838593E-1
9.535513647E0,5.098230839E-1,5.517802238E-1,-9.601211548E-2
9.545514647E0,2.922438383E-1,5.522494316E-1,8.392333984E-4
9.556464647E0,9.316843748E-2,4.802398682E-1,1.875982285E-1
9.566055647E0,-2.444975972E-1,3.124785423E-1,4.797687531E-1
9.575399647E0,-3.743498325E-1,1.961302757E-1,7.756910324E-1
9.585484647E0,-4.255610704E-1,1.089000702E-1,1.081348419E0
9.595342647E0,-5.533450842E-1,1.036338806E-1,1.391917229E0
9.605525647E0,-7.066476345E-1,1.616010666E-1,1.759150505E0
9.615405647E0,-8.540652990E-1,2.481818199E-1,2.239646912E0
9.625393647E0,-1.013730764E0,4.858264923E-1,2.654089928E0
9.635402647E0,-1.042981863E0,7.557277679E-1,2.892280579E0
9.645998647E0,-8.897413611E-1,9.284281731E-1,3.083648682E0
9.655433647E0,-7.753702402E-1,1.211809158E0,3.021992683E0
9.665369647E0,-6.312171221E-1,1.419587612E0,2.906425476E0
9.675470647E0,-4.323316813E-1,1.466639042E0,2.842423439E0
9.686805647E0,-9.592372179E-2,1.363946915E0,2.501339912E0
9.695402647E0,3.213540316E-1,1.059451580E0,2.270643234E0
9.705379647E0,7.298296094E-1,5.954432487E-1,2.235428810E0
9.716074647E0,1.021719694E0,-7.405366898E-1,2.620402336E0
9.725678647E0,9.907611012E-1,-7.165150642E-1,2.601475716E0
9.736991647E0,6.259934306E-1,-1.444858074E0,2.744904518E0
9.745374647E0,-6.557458639E-2,-2.034959078E0,2.749471664E0
9.755407647E0,-1.618580341E0,-2.532995701E0,2.182054520E0
9.765411647E0,-2.090306759E0,-2.722471714E0,1.707615852E0
9.775637647E0,-2.290085316E0,-2.740523815E0,1.312069893E0
9.785669647E0,-2.410320520E0,-2.458397627E0,8.869724274E-1
9.795413647E0,-2.113503933E0,-2.238503933E0,3.760232925E-1
9.805591647E0,-1.413744211E0,-2.225914955E0,-2.589769363E-1
9.815704647E0,-6.791675091E-1,-2.241982937E0,-7.767782211E-1
9.825444647E0,-1.253510118E-1,-2.210235357E0,-9.756774902E-1
9.836127647E0,2.593507767E-1,-2.197020292E0,-9.429421425E-1
9.845491647E0,5.719625950E-1,-2.237082720E0,-7.587237358E-1
9.855532647E0,7.591241598E-1,-2.371674776E0,-4.524216652E-1
9.865750647E0,7.477861643E-1,-2.458991289E0,-8.625984192E-2
9.875369647E0,6.012897491E-1,-2.455029249E0,2.544841766E-1
9.885335647E0,4.499271214E-1,-2.407395840E0,3.502144814E-1
9.895633647E0,3.186025620E-1,-2.380959272E0,3.135910034E-1
9.905370647E0,1.956144869E-1,-2.250138044E0,1.955871582E-1
9.915352647E0,5.527515709E-2,-2.080346346E0,7.760143280E-2
9.925520647E0,-6.616395712E-2,-1.951412439E0,-9.106397629E-2
9.935404647E0,-1.320642531E-1,-1.826447487E0,-3.547253609E-1
9.945473647E0,-1.054613590E-1,-1.729207993E0,-7.602581978E-1
9.955401647E0,7.151633501E-3,-1.580785513E0,-1.230943203E0
9.965581647E0,5.176015198E-2,-1.401731014E0,-1.496503353E0
9.975492647E0,4.122354090E-2,-1.220222473E0,-1.593423843E0
9.985957647E0,2.748568356E-2,-1.092945099E0,-1.506350994E0
9.995391647E0,7.062926888E-3,-1.015722752E0,-1.361372948E0
1.000647065E1,-1.522824168E-3,-9.752292633E-1,-1.167977810E0
1.001589465E1,5.541294813E-4,-9.594049454E-1,-9.716773033E-1
1.002537065E1,-1.081980616E-1,-9.099345207E-1,-8.223919868E-1
1.003538165E1,-2.666992247E-1,-8.061237335E-1,-6.948022842E-1
1.004543065E1,-4.670210481E-1,-6.808724403E-1,-6.380534172E-1
1.005539065E1,-6.641713381E-1,-5.277314186E-1,-6.732807159E-1
1.006577365E1,-7.453567982E-1,-3.635492325E-1,-7.677655220E-1
1.007539765E1,-7.411727905E-1,-1.817793846E-1,-7.762646675E-1
1.008536865E1,-6.494685411E-1,1.731491089E-2,-6.351599693E-1
1.009540465E1,-4.724687636E-1,1.183657646E-1,-4.071474075E-1
1.010532965E1,-3.384647667E-1,1.509752274E-1,-1.345710754E-1
1.011529865E1,-2.762285471E-1,2.015643120E-1,1.065969467E-1
1.012563565E1,-2.965720892E-1,1.905474663E-1,3.842258453E-1
1.013529365E1,-3.442622125E-1,1.875610352E-1,6.777858734E-1
1.014551765E1,-3.912063241E-1,2.240495682E-1,9.663238525E-1
1.015537865E1,-4.057961106E-1,2.321228981E-1,1.174411774E0
1.016535265E1,-4.352398217E-1,2.522172928E-1,1.255845070E0
1.017536865E1,-4.847805500E-1,2.816610336E-1,1.201610565E0
1.018540065E1,-5.133969784E-1,3.079638481E-1,1.027102470E0
1.019539265E1,-4.552445412E-1,2.919235229E-1,8.345851898E-1
1.020545365E1,-3.633306026E-1,2.747182846E-1,6.828413010E-1
1.021537265E1,-3.293973505E-1,2.917852402E-1,6.499843597E-1
1.022547965E1,-3.642964065E-1,3.324375153E-1,8.093147278E-1
1.023578665E1,-4.390422702E-1,3.606028557E-1,1.158085823E0
1.024548165E1,-5.330985785E-1,3.927073479E-1,1.552422523E0
1.025539365E1,-6.002212763E-1,4.499387741E-1,1.927935600E0
1.026556265E1,1.865228415E-1,3.714694977E-1,2.359983444E0
1.027538465E1,9.335348010E-1,9.712510109E-1,2.781817436E0
1.028537965E1,2.334393740E0,1.937208176E0,2.331231117E0
1.029547265E1,1.739878058E0,2.163296223E0,2.087517738E0
1.030537965E1,1.357036710E0,1.789848328E0,2.005291939E0
1.031536865E1,1.130472898E0,1.102204800E0,1.961585045E0
1.032541065E1,1.021138549E0,3.963584900E-1,2.207121849E0
1.033536365E1,1.163011789E0,-3.706417084E-1,2.656086922E0
1.034550065E1,1.340856671E0,-1.026168346E0,2.873807907E0
1.035609065E1,1.470666170E0,-1.424744606E0,2.655423164E0
1.036541765E1,9.907044172E-1,-1.801304817E0,2.418682098E0
1.037562965E1,3.073202670E-1,-2.222445726E0,2.222412109E0
1.038541965E1,-3.626444042E-1,-2.524586439E0,2.143531799E0
1.039554765E1,-9.638352394E-1,-2.700711012E0,1.624494553E0
1.040565765E1,-1.227315187E0,-2.988958120E0,1.031468391E0
1.041541265E1,-7.907238007E-1,-2.904404640E0,5.812702179E-1
1.042548065E1,-2.133640945E-1,-2.240726709E0,-8.004760742E-2
1.043542965E1,8.557558060E-3,-1.862230539E0,-9.184761047E-1
1.044535065E1,2.283535600E-1,-2.055849791E0,-1.143878460E0
1.045776265E1,3.386969864E-1,-2.157697201E0,-1.124424934E0
1.047107015E1,1.085860968E0,-1.980042458E0,-7.205929756E-1
1.048552865E1,1.002454042E0,-2.023378372E0,-1.938915253E-1
1.049558065E1,6.565826535E-1,-2.082255363E0,1.263117790E-1
1.050547965E1,4.540273845E-1,-2.194453955E0,2.234492302E-1
1.051544465E1,3.611018360E-1,-2.239655972E0,1.412315369E-1
1.052653365E1,2.886649668E-1,-2.207114458E0,-2.247834206E-1
1.053550765E1,2.036380768E-1,-2.154368162E0,-7.720985413E-1
1.054572665E1,1.283791363E-1,-2.059041500E0,-1.358691692E0
1.055547165E1,1.342180371E-2,-1.935418606E0,-1.846305847E0
1.056544965E1,-1.009860933E-1,-1.767292500E0,-2.076697350E0
1.057543065E1,-1.453651786E-1,-1.567753792E0,-2.123491287E0
1.058570765E1,-1.076385677E-1,-1.419741631E0,-2.208651543E0
1.059551865E1,-6.624108553E-2,-1.219395638E0,-2.236967087E0
1.060558565E1,-5.704435706E-2,-1.039187431E0,-2.213188648E0
1.061560965E1,-1.183992624E-2,-8.983798027E-1,-2.140977859E0
1.062581565E1,-1.887202263E-2,-7.727775574E-1,-1.909956455E0
1.063551265E1,-8.663243055E-2,-6.678605080E-1,-1.468131542E0
1.064598365E1,-1.596886516E-1,-6.131305695E-1,-1.098965168E0
1.065544565E1,-1.315817237E-1,-5.625262260E-1,-8.413300514E-1
1.066550465E1,-1.452270746E-1,-4.866185188E-1,-5.412230492E-1
1.067568765E1,-2.273889780E-1,-3.424210548E-1,-2.076139450E-1
1.068554265E1,-2.783907056E-1,-2.779603004E-1,6.281566620E-2
1.069606365E1,-1.999083757E-1,-1.122603416E-1,2.819643021E-1
1.070538665E1,-1.246763468E-1,8.232975006E-2,4.599437714E-1
1.071536565E1,-1.001031399E-1,-5.770206451E-2,6.303691864E-1
1.072547565E1,3.513360023E-2,-1.192603111E-1,4.848537445E-1
1.073555665E1,-3.390696049E-1,2.220363617E-1,2.466917038E-1
1.074572365E1,-1.307056546E-1,3.252935410E-2,2.680797577E-1
1.075550965E1,2.285408974E-2,3.547000885E-2,-1.121902466E-2
1.076538265E1,-1.682699919E-1,5.131793022E-1,3.682937622E-1
1.077539065E1,-2.304244041E-1,3.133897781E-1,5.004262924E-1
1.078560865E1,-2.407867908E-1,2.186570168E-1,4.716501236E-1
1.079536265E1,-2.069211602E-1,1.939678192E-1,5.038089752E-1
1.080848465E1,-1.102724075E-1,4.148325920E-1,9.241847992E-1
1.082547465E1,-4.008889198E-3,1.782546043E-1,1.523783684E0
1.083531665E1,-5.431401730E-2,3.284578323E-1,1.632738113E0
1.084548965E1,-1.918762922E-2,6.162900925E-1,1.689861298E0
1.085540765E1,1.106733084E-2,8.891115189E-1,1.847922325E0
1.086537665E1,-1.463428140E-1,1.167858601E0,2.011068344E0
1.087536765E1,-4.033073783E-1,1.371446133E0,2.215910912E0
1.088551765E1,-6.587720513E-1,1.490859032E0,2.342164040E0
1.089577565E1,-5.538260937E-1,1.469165802E0,2.402865410E0
1.090614765E1,-4.918895364E-1,1.394545078E0,2.567585945E0
1.091583765E1,-6.779975891E-1,1.245240211E0,2.839870453E0
1.092598665E1,-6.811030507E-1,8.426966667E-1,3.094329834E0
1.093803065E1,-5.742774606E-1,-4.306888580E-2,3.082019806E0
1.095540865E1,7.015055418E-2,-1.450293541E0,3.361952782E0
1.096548065E1,4.207241535E-2,-1.950034618E0,3.189826012E0
1.097562165E1,2.173487544E-1,-2.635545969E0,3.112483025E0
1.098543165E1,3.875434101E-1,-2.580760002E0,3.219658852E0
1.099540765E1,3.467863798E-2,-2.125727177E0,3.157205582E0
1.100564465E1,-4.011028707E-1,-2.158402920E0,2.947745323E0
1.101538965E1,-1.769933105E-2,-2.015522718E0,2.123562813E0
1.102552865E1,1.846747398E-1,-2.042297840E0,1.015583992E0
1.103549065E1,2.396889180E-1,-2.171333313E0,7.090568542E-3
1.104542565E1,1.434766054E-1,-2.190675735E0,-9.814486504E-1
1.105546065E1,-3.148230612E-1,-1.950287819E0,-1.881231308E0
1.106530965E1,-7.931336164E-1,-1.410788059E0,-2.429124355E0
1.107534765E1,-1.082583666E0,-9.853401184E-1,-2.663950443E0
1.108531665E1,-1.391372204E0,-7.470045090E-1,-2.682687759E0
1.109541965E1,-1.647872329E0,-8.048405647E-1,-2.426412582E0
1.110534365E1,-1.326795578E0,-1.388702393E0,-1.879997730E0
1.111537165E1,-1.001560450E0,-1.820278645E0,-1.267984390E0
1.112542665E1,-7.962588072E-1,-2.010325193E0,-6.723613739E-1
1.113576265E1,-6.422485113E-1,-2.118438959E0,-7.662391663E-2
1.114555665E1,-5.970331430E-1,-2.188126326E0,5.746364594E-1
1.115537765E1,-5.253659487E-1,-2.146225214E0,1.095891953E0
1.116549665E1,-4.460688531E-1,-2.014204264E0,1.304875374E0
1.117560865E1,-3.265649080E-1,-1.908338785E0,1.206155777E0
1.118558765E1,-2.105779499E-1,-1.858862400E0,9.019165039E-1
1.119542065E1,-1.692820638E-1,-1.727205038E0,4.127378464E-1
1.120819365E1,-9.140725434E-2,-1.413527012E0,-9.180469513E-1
1.122537265E1,-1.955138892E-2,-1.229900837E0,-1.530729294E0
1.123532065E1,1.578836143E-1,-1.038431644E0,-2.032525539E0
1.124548565E1,1.484391987E-1,-9.298768044E-1,-2.414414406E0
1.125602665E1,4.929448664E-2,-8.731174469E-1,-2.615131378E0
1.126560165E1,-9.256547689E-2,-8.095979691E-1,-2.705186367E0
1.127536665E1,-2.427265048E-1,-7.208161354E-1,-2.600417614E0
1.128542565E1,-4.153840542E-1,-6.274642944E-1,-2.354493618E0
1.129565565E1,-5.430535674E-1,-5.487546921E-1,-1.982511520E0
1.130583065E1,-5.648094416E-1,-4.089841843E-1,-1.513010025E0
1.131534665E1,-6.464970112E-1,-2.875800133E-1,-9.979190826E-1
1.132556465E1,-7.062394023E-1,-1.387958527E-1,-4.585776329E-1
1.133536265E1,-7.014445662E-1,-7.821941376E-2,-3.189659119E-2
1.134548465E1,-6.179534793E-1,-5.094671249E-2,2.885017395E-1
1.135539265E1,-4.651901424E-1,-6.811141968E-3,7.236700058E-1
1.136542165E1,-4.496721029E-1,2.904987335E-2,7.219944000E-1
1.137543565E1,-2.607391477E-1,6.828212738E-2,5.696210861E-1
1.138533565E1,-1.764902472E-1,1.057333946E-1,3.662948608E-1
1.139539165E1,-9.344634414E-2,2.166275978E-1,2.243919373E-1
1.140846265E1,-9.105405211E-2,3.669052124E-1,1.674604416E-1
1.142537765E1,-1.938604712E-1,6.433496475E-1,2.902250290E-1
1.143539465E1,-1.479231864E-1,7.864637375E-1,4.403028488E-1
1.144540965E1,-1.614088565E-1,9.141640663E-1,6.700811386E-1
1.145626465E1,-2.432012856E-1,8.483362198E-1,9.714469910E-1
1.146600965E1,-4.198057055E-1,8.933596611E-1,1.300753593E0
1.147541865E1,-4.613077343E-1,1.066742897E0,1.675046921E0
1.148537465E1,-4.429584444E-1,1.284929752E0,2.142499924E0
1.149551365E1,-3.279519975E-1,1.401142597E0,2.675305367E0
1.150569765E1,-5.330197513E-2,1.462176800E0,2.967682838E0
1.151556165E1,1.985303760E-1,1.453649998E0,3.013901711E0
1.152580565E1,4.319618344E-1,1.339513779E0,2.991494179E0
1.153542865E1,5.817586184E-1,1.106245995E0,3.125311852E0
1.154569965E1,7.232233882E-1,8.622703552E-1,3.266509056E0
1.155563765E1,8.662623167E-1,5.509762764E-1,3.510928154E0
1.156543365E1,1.270723820E0,7.253646851E-2,3.966759682E0
1.157584165E1,1.516634941E0,-5.022239685E-1,4.216742516E0
1.158532365E1,1.470786333E0,-1.082360268E0,4.284740448E0
1.159536765E1,1.207089663E0,-1.573012829E0,4.114969254E0
1.160545765E1,9.710174203E-1,-1.993022680E0,3.647622108E0
1.161533865E1,8.972876072E-1,-2.064376116E0,2.801496506E0
1.162560365E1,8.757204413E-1,-1.997255325E0,1.815033913E0
1.163538465E1,8.620730639E-1,-2.129455566E0,8.669023514E-1
1.164535365E1,5.647986531E-1,-2.142750263E0,-5.356407166E-2
1.165537565E1,3.996006548E-1,-1.986131430E0,-6.439542770E-1
1.166551365E1,4.745866358E-1,-1.780212641E0,-1.118310928E0
1.167561065E1,5.900760293E-1,-1.674616337E0,-1.508074284E0
1.168536065E1,7.055591345E-1,-1.765230179E0,-1.681221962E0
1.169540865E1,6.515133977E-1,-1.930314064E0,-1.626468658E0
1.170550665E1,6.443839669E-1,-2.062336922E0,-1.387770653E0
1.171533465E1,6.985589266E-1,-2.027985811E0,-1.260532379E0
1.172538165E1,6.938114166E-1,-1.909788609E0,-1.098186493E0
1.173544665E1,8.249741793E-1,-2.137932301E0,-7.867732048E-1
1.174573965E1,8.460979462E-1,-2.148191214E0,-4.899268150E-1
1.175541465E1,4.188992083E-1,-1.941551924E0,-6.538639069E-1
1.176533765E1,3.361877799E-1,-2.286166668E0,-5.827689171E-1
1.177537765E1,-9.750694036E-3,-2.202919722E0,-7.864570618E-1
1.178541965E1,-1.686769128E-1,-1.839185238E0,-9.972877502E-1
1.179617165E1,-2.677370310E-1,-1.620030165E0,-1.254795074E0
1.180545665E1,-2.503014803E-1,-1.492182493E0,-1.327394485E0
1.181551965E1,-1.566296816E-1,-1.384713650E0,-1.365552425E0
1.182693665E1,-1.856023669E-1,-9.731655121E-1,-1.422417641E0
1.183545065E1,-1.856023669E-1,-9.731645584E-1,-1.422417641E0
1.184579165E1,-9.027522802E-2,-8.176474571E-1,-1.455485344E0
1.185550465E1,5.280029774E-2,-7.194452286E-1,-1.505574226E0
1.186544965E1,1.764041781E-1,-5.915918350E-1,-1.571779251E0
1.187548965E1,2.895026207E-1,-5.046877861E-1,-1.619459152E0
1.188531265E1,3.592160344E-1,-4.676704407E-1,-1.513018608E0
1.189575865E1,2.330522537E-1,-2.947678566E-1,-1.391134739E0
1.190554365E1,1.327916980E-1,-2.178368568E-1,-1.131366253E0
1.191558265E1,1.341477633E-1,-2.030258179E-1,-9.190983772E-1
1.192603665E1,1.831581593E-1,-1.449284554E-1,-5.945658684E-1
1.193534565E1,2.572655082E-1,-7.190847397E-2,-2.435884476E-1
1.194663165E1,3.817568421E-1,-1.719808578E-2,1.041679382E-1
1.195537265E1,5.557909012E-1,2.863407135E-2,3.912887573E-1
1.196536065E1,6.990437508E-1,1.180043221E-1,6.193523407E-1
1.197537265E1,7.722434998E-1,1.703238487E-1,7.379255295E-1
1.198547565E1,7.382283211E-1,2.041606903E-1,7.969141006E-1
1.199622565E1,5.553413630E-1,2.923631668E-1,8.328104019E-1
1.200551465E1,3.954433799E-1,3.162760735E-1,8.768863678E-1
1.201540865E1,2.298065424E-1,3.594551086E-1,1.032593727E0
1.202879065E1,5.948388577E-2,3.942532539E-1,1.146683693E0
1.204553265E1,-2.237093449E-1,3.608856201E-1,1.511665344E0
1.205544765E1,-3.903558254E-1,4.518408775E-1,1.766908646E0
1.206537365E1,-5.320881605E-1,4.496045113E-1,1.977762222E0
1.207585765E1,-5.881146193E-1,5.705494881E-1,2.292461395E0
1.208547765E1,-6.317391396E-1,7.648897171E-1,2.474004745E0
1.209532065E1,-6.558640003E-1,9.071698189E-1,2.529256821E0
1.210755365E1,-6.880732775E-1,1.022535324E0,2.688248634E0
1.211558065E1,-7.213041782E-1,1.159915447E0,2.859529495E0
1.212536465E1,-6.838158369E-1,1.207445145E0,2.986339569E0
1.213532865E1,-5.399323702E-1,1.109622955E0,3.215610504E0
1.214650765E1,-3.247292042E-1,9.563746452E-1,3.326566696E0
1.215554965E1,-7.238447666E-2,7.644085884E-1,3.468333244E0
1.216559565E1,2.002528906E-1,3.856835365E-1,3.546165466E0
1.217538165E1,4.499999285E-1,-1.558370590E-1,3.398188591E0
1.218543565E1,3.303992748E-1,-6.141238213E-1,3.312128067E0
1.219616165E1,-1.170927286E-1,-1.036848783E0,3.211316109E0
1.220550765E1,-5.976889133E-1,-1.398722410E0,2.815577507E0
1.221537965E1,-9.649792910E-1,-1.736716509E0,2.192671776E0
1.222553065E1,-1.238830686E0,-1.998477936E0,1.441974640E0
1.223537065E1,-1.331689119E0,-2.260289669E0,6.632804871E-1
1.224550865E1,-1.417091846E0,-2.383827686E0,7.246017456E-3
1.225556165E1,-1.465873122E0,-2.293266535E0,-5.072121620E-1
1.226539065E1,-1.401972055E0,-2.161777258E0,-9.780430794E-1
1.227566565E1,-1.173141718E0,-2.107557774E0,-1.469890118E0
1.228551665E1,-8.879520893E-1,-2.158909321E0,-1.662690163E0
1.229583065E1,-7.065587044E-1,-2.081704855E0,-1.811914921E0
1.230839765E1,-4.023740292E-1,-2.013905764E0,-1.996946335E0
1.232535565E1,-3.048035502E-1,-2.133779526E0,-1.863077641E0
1.233534165E1,-1.890251637E-1,-2.170372725E0,-1.527172565E0
1.234545365E1,-1.159207821E-1,-2.222190380E0,-1.088209629E0
1.235811165E1,-1.449668407E-1,-2.332444906E0,-2.984008789E-1
1.237542065E1,-3.939443231E-1,-2.271099567E0,-6.902313232E-2
1.238548265E1,-5.792638659E-1,-2.252881050E0,1.228733063E-1
1.239537765E1,-7.097904086E-1,-2.198553324E0,2.082309723E-1
1.240554265E1,-7.860091925E-1,-2.086974621E0,2.036561966E-1
1.241537465E1,-7.801123857E-1,-1.996568918E0,1.349000931E-1
1.242538865E1,-6.484929919E-1,-1.689146996E0,2.026844025E-2
1.243542465E1,-5.560207367E-1,-1.482163429E0,-1.761636734E-1
1.244536965E1,-4.677011371E-1,-1.374842167E0,-4.433445930E-1
1.245536965E1,-4.114227295E-1,-1.269008875E0,-7.110948563E-1
1.246534465E1,-4.410393238E-1,-1.062630653E0,-1.021422386E0
1.247678465E1,-4.283265471E-1,-9.034900665E-1,-1.262380123E0
1.248550865E1,-4.209449291E-1,-8.099880219E-1,-1.498671532E0
1.249549965E1,-4.743483663E-1,-6.363978386E-1,-1.720944405E0
1.250848165E1,-5.178362727E-1,-4.824309349E-1,-1.789178848E0
1.252534665E1,-4.306998849E-1,-2.350006104E-1,-1.608710766E0
1.253533365E1,-4.274618030E-1,-1.471028328E-1,-1.449860573E0
1.254534265E1,-4.472593665E-1,-5.000591278E-2,-1.196908474E0
1.255591365E1,-5.224871635E-1,4.147672653E-2,-9.132719040E-1
1.256537065E1,-5.294198990E-1,1.192378998E-1,-5.637030602E-1
1.257535865E1,-4.708571434E-1,1.475667953E-1,-1.426906586E-1
1.258534365E1,-4.042001367E-1,2.006392479E-1,2.189807892E-1
1.259539265E1,-3.754829168E-1,2.580537796E-1,4.742565155E-1
1.260538365E1,-3.561983109E-1,2.679390907E-1,7.020769119E-1
1.261532965E1,-3.362548351E-1,2.578907013E-1,8.972330093E-1
1.262535865E1,-3.920766711E-1,2.807273865E-1,1.098711967E0
1.263535265E1,-3.235530853E-1,3.285727501E-1,1.264296532E0
1.264536065E1,-3.015574813E-1,3.232617378E-1,1.387940407E0
1.265535265E1,-3.123341799E-1,3.146543503E-1,1.493678093E0
1.266542965E1,-2.453367114E-1,2.569184303E-1,1.617280006E0
1.267544165E1,-2.115116119E-1,2.180199623E-1,1.807745934E0
1.268557665E1,-2.031161189E-1,2.101135254E-1,1.994641304E0
1.269538765E1,-2.247664928E-1,2.442002296E-1,2.178674698E0
1.270543165E1,-3.452644944E-1,4.185523987E-1,2.259496689E0
1.271539565E1,-4.867655039E-1,6.436209679E-1,2.149580956E0
1.272560765E1,-5.556402802E-1,8.194818497E-1,2.111470222E0
1.273532765E1,-6.377373338E-1,1.084319592E0,2.043633461E0
1.274551365E1,-6.198875308E-1,1.331218243E0,1.894306183E0
1.275536465E1,-2.874605656E-1,1.380330086E0,1.871991158E0
1.276542865E1,3.230754733E-1,1.220094204E0,1.960874557E0
1.277550665E1,1.035913229E0,1.045896530E0,2.131377220E0
1.278553765E1,1.676927567E0,7.811355591E-1,2.626997948E0
1.279655665E1,2.039257050E0,3.406801224E-1,3.133048058E0
1.280556265E1,2.347040653E0,-2.984700203E-1,3.232156754E0
1.281538865E1,2.279570103E0,-1.005713463E0,3.094137192E0
1.282535065E1,1.695255160E0,-1.567706347E0,2.690123558E0
1.283664165E1,8.487576246E-1,-2.003612280E0,1.908091545E0
1.284568765E1,4.400235415E-2,-2.245997190E0,1.097078323E0
1.285539165E1,-4.777018726E-1,-2.547131062E0,3.515901566E-1
1.286537665E1,-7.420552373E-1,-2.836449862E0,-1.809997559E-1
1.287551765E1,-9.359814525E-1,-2.817324400E0,-5.525498390E-1
1.288552565E1,-1.074504972E0,-2.619381189E0,-8.378367424E-1
1.289538365E1,-1.020007968E0,-2.389259338E0,-1.232505322E0
1.290726765E1,-5.597084761E-2,-2.098803282E0,-1.763377666E0
1.291560465E1,-6.951409578E-2,-2.164287329E0,-1.723654270E0
1.292566465E1,5.224984288E-1,-2.038175106E0,-1.992341995E0
1.293538165E1,1.000336766E0,-2.016380310E0,-2.092494011E0
1.294545165E1,1.277275920E0,-1.955415249E0,-1.928821087E0
1.295549965E1,1.345968246E0,-1.841666937E0,-1.297149658E0
1.296586365E1,1.000946403E0,-1.681542158E0,-5.834593773E-1
1.297540165E1,5.448982120E-1,-1.586573362E0,3.337192535E-2
1.298535065E1,7.263725996E-2,-1.555931091E0,4.918355942E-1
1.299545465E1,-4.034603238E-1,-1.444773436E0,9.501848221E-1
1.300553365E1,-7.848008871E-1,-1.260439634E0,1.211833000E0
1.301591565E1,-8.882951140E-1,-1.103066683E0,1.164615631E0
1.302537365E1,-7.392791510E-1,-9.735715389E-1,8.921623230E-1
1.303544265E1,-5.309762359E-1,-7.580108643E-1,4.602165222E-1
1.304728665E1,-2.857742310E-1,-5.346641541E-1,-6.003665924E-2
1.305540765E1,-7.498013973E-2,-2.960376740E-1,-6.015481949E-1
1.306543365E1,6.989318132E-2,-1.358485222E-1,-1.084846497E0
1.307553765E1,2.248975635E-1,-1.025714874E-1,-1.478721142E0
1.308531465E1,3.142116368E-1,-8.956336975E-2,-1.630416870E0
1.309537565E1,3.017274439E-1,-5.772733688E-2,-1.639976025E0
1.310652365E1,2.800318599E-1,-8.698177338E-2,-1.449908733E0
1.311569065E1,3.211165667E-1,-9.363985062E-2,-1.063289642E0
1.312536665E1,3.764456809E-1,-8.919239044E-2,-7.645897865E-1
1.313539065E1,4.552072287E-1,-1.284942627E-1,-4.785594940E-1
1.314586165E1,4.948827028E-1,-1.158890724E-1,-1.908245087E-1
1.315542165E1,4.628358185E-1,-4.681634903E-2,-6.702423096E-3
1.316536565E1,4.662040174E-1,1.854801178E-2,1.610212326E-1
1.317546765E1,4.749709666E-1,7.692432404E-2,1.664819717E-1
1.318536765E1,4.922728240E-1,1.252441406E-1,1.770534515E-1
1.319594965E1,5.037393570E-1,2.415513992E-1,1.628227234E-1
1.320548965E1,5.271041393E-1,2.848200798E-1,1.488389969E-1
1.321568765E1,5.231520534E-1,3.207273483E-1,1.215991974E-1
1.322532165E1,4.437819123E-1,3.102869987E-1,1.218805313E-1
1.323569065E1,3.620546162E-1,2.872438431E-1,1.342325211E-1
1.324534865E1,2.610552311E-1,2.548642159E-1,2.051811218E-1
1.325605965E1,1.356987953E-1,2.047791481E-1,3.213548660E-1
1.326532065E1,-2.440392971E-2,1.531100273E-1,6.038713455E-1
1.327537365E1,-3.235144615E-1,1.692204475E-1,9.581975937E-1
1.328530065E1,-5.511173606E-1,1.789827347E-1,1.354485512E0
1.329534465E1,-6.997768879E-1,2.340250015E-1,1.756398201E0
1.330531765E1,-7.964553833E-1,2.783555984E-1,1.965909958E0
1.331545665E1,-9.051254392E-1,4.910559654E-1,2.056620598E0
1.332539665E1,-1.007203579E0,8.301286697E-1,2.354596138E0
1.333531065E1,-9.665806293E-1,1.170876980E0,2.561948776E0
1.334538365E1,-7.438902855E-1,1.386861801E0,2.635983467E0
1.335551265E1,-5.366153717E-1,1.563894272E0,2.701289177E0
1.336542065E1,-3.699188828E-1,1.703852654E0,2.776715279E0
1.337571065E1,-3.085136414E-2,1.571061611E0,2.812940598E0
1.338538665E1,3.662999868E-1,1.212870121E0,2.873240471E0
1.339531865E1,6.309629083E-1,7.514762878E-1,3.182873726E0
1.340560765E1,7.252585292E-1,2.846560478E-1,3.292808533E0
1.341552565E1,7.082048655E-1,-2.616052628E-1,3.301113129E0
1.342532565E1,4.839033186E-1,-8.369283676E-1,3.293538094E0
1.343533165E1,7.041907310E-2,-1.418290615E0,2.951945305E0
1.344618165E1,-4.235888124E-1,-1.953290462E0,2.366804123E0
1.345542665E1,-9.483037591E-1,-2.245486498E0,1.879713058E0
1.346533265E1,-1.426738739E0,-2.313354254E0,1.424187660E0
1.347540165E1,-1.655681610E0,-2.345171213E0,1.001475334E0
1.348545765E1,-1.599292040E0,-2.348413706E0,6.789598465E-1
1.349535565E1,-1.170990944E0,-2.190227270E0,-4.009613991E-1
1.350790365E1,-9.544965625E-1,-2.220460653E0,-9.809560776E-1
1.352540765E1,-8.894819617E-1,-2.120019913E0,-1.602883339E0
1.353531665E1,-8.162777424E-1,-2.123657942E0,-1.820427895E0
1.354551465E1,-6.617502570E-1,-2.146792412E0,-2.034939766E0
1.355950565E1,-3.648515344E-1,-2.227067232E0,-2.002697945E0
1.357613265E1,1.985851526E-1,-2.458360910E0,-1.484620571E0
1.358531465E1,2.379427850E-1,-2.513204575E0,-1.059526443E0
1.359533465E1,1.214148402E-1,-2.521127224E0,-6.753711700E-1
1.360557065E1,-9.641981125E-2,-2.503700733E0,-4.803123474E-1
1.361633265E1,-4.551926255E-1,-2.498930931E0,-2.331643105E-1
1.362562065E1,-8.407073617E-1,-2.358608961E0,-3.416061401E-3
1.363538365E1,-1.057530165E0,-2.130542755E0,2.510166168E-2
1.364550665E1,-1.028278351E0,-1.992428780E0,-5.832672119E-2
1.365549265E1,-8.212749362E-1,-1.864163637E0,-2.210378647E-1
1.366556765E1,-5.986235142E-1,-1.674868345E0,-4.807243347E-1
1.367548565E1,-4.144076407E-1,-1.449765682E0,-6.939330101E-1
1.368539465E1,-3.272066116E-1,-1.195221424E0,-8.831315041E-1
1.369584965E1,-2.377186418E-1,-9.861183167E-1,-1.056921959E0
1.370534965E1,-1.705316305E-1,-8.406028748E-1,-1.174932480E0
1.371589265E1,-8.582243323E-2,-7.363691330E-1,-1.291520596E0
1.372561865E1,-9.773497283E-2,-6.594347954E-1,-1.299683571E0
1.373541765E1,-1.911597103E-1,-5.582542419E-1,-1.258196354E0
1.374535665E1,-2.857400179E-1,-4.467520714E-1,-1.178629398E0
1.375544565E1,-2.322936803E-1,-3.707399368E-1,-1.115144253E0
1.376571665E1,-1.474491656E-1,-2.612285614E-1,-9.972896576E-1
1.377537265E1,-9.342734516E-2,-6.681299210E-2,-8.274364471E-1
1.378552865E1,-7.319996506E-2,1.165246964E-1,-6.230349541E-1
1.379535165E1,-4.218962044E-2,1.622166634E-1,-4.860334396E-1
1.380544465E1,-4.373801500E-2,1.654267311E-1,-2.937908173E-1
1.381633365E1,-1.018307284E-1,1.557092667E-1,-1.733942032E-1
1.382541665E1,-2.642109096E-1,1.473555565E-1,-1.922130585E-2
1.383542865E1,-4.865350127E-1,1.783795357E-1,2.088365555E-1
1.384583965E1,-6.616296768E-1,1.743869781E-1,4.164466858E-1
1.385540365E1,-6.988254786E-1,1.093459129E-1,6.992197037E-1
1.386554965E1,-4.995297790E-1,1.004748344E-1,1.023241043E0
1.387533265E1,-4.906941652E-1,6.036472321E-2,1.337629318E0
1.388556365E1,-4.169181287E-1,1.704931259E-2,1.619575500E0
1.389612965E1,-2.659735084E-1,6.496524811E-2,1.835905075E0
1.390565965E1,-2.398017198E-1,1.734843254E-1,2.070311546E0
1.391543265E1,-2.384744138E-1,2.911539078E-1,2.206732750E0
1.392590265E1,-2.874206603E-1,4.369196892E-1,2.206703186E0
1.393570465E1,-3.797445595E-1,6.940045357E-1,2.250831604E0
1.394547165E1,-4.049753547E-1,9.556183815E-1,2.251101494E0
1.395542765E1,-2.345350385E-1,1.159464836E0,2.279096603E0
1.396579865E1,1.074874327E-1,1.346374035E0,2.173416138E0
1.397605665E1,4.514730275E-1,1.480335712E0,2.194226265E0
1.398551365E1,7.738342285E-1,1.638428211E0,2.220147133E0
1.399538665E1,1.102059364E0,1.612717628E0,2.267744064E0
1.400560865E1,1.536502600E0,1.399755955E0,2.366677284E0
1.401620965E1,2.362361670E0,8.096399307E-1,2.677316666E0
1.402540665E1,2.321091175E0,8.189029694E-1,2.676822662E0
1.403556465E1,2.488758564E0,-1.672892570E-1,2.510663033E0
1.404532365E1,2.098765850E0,-8.486680984E-1,2.064442635E0
1.405555965E1,1.411829948E0,-1.429793835E0,1.424682617E0
1.406604165E1,5.313340425E-1,-1.735585690E0,9.696588516E-1
1.407540665E1,-2.219220698E-1,-1.983130693E0,5.228633881E-1
1.408573465E1,-6.317971349E-1,-2.282707691E0,1.510124207E-1
1.409538565E1,-8.601529002E-1,-2.444034338E0,-1.633358002E-1
1.410545365E1,-9.519903660E-1,-2.516964436E0,-4.541606903E-1
1.411533065E1,-9.145333171E-1,-2.483066559E0,-7.637138367E-1
1.412541165E1,-7.021309137E-1,-2.363309860E0,-9.678645134E-1
1.413576565E1,-2.025093585E-1,-2.246388912E0,-1.162941933E0
1.414561665E1,5.126189590E-1,-2.214033365E0,-1.330442905E0
1.415540765E1,1.135991096E0,-2.244139910E0,-1.465127468E0
1.416536665E1,1.524317384E0,-2.203644276E0,-1.321988583E0
1.417541765E1,1.632898211E0,-2.137914658E0,-1.098355293E0
1.418577565E1,1.489355445E0,-2.052185059E0,-8.013277054E-1
1.419539365E1,1.141620755E0,-1.873091936E0,-5.034880638E-1
1.420619465E1,6.996815205E-1,-1.643932581E0,-2.508192062E-1
1.421537665E1,3.096238673E-1,-1.432340860E0,4.681777954E-2
1.422548765E1,9.336743504E-2,-1.269410372E0,2.370548248E-1
1.423533765E1,6.069076061E-2,-1.174761772E0,1.890792847E-1
1.424546665E1,1.445844173E-1,-1.079200745E0,-6.034278870E-2
1.425558065E1,2.600980699E-1,-9.678244591E-1,-3.432111740E-1
1.426608865E1,3.859295845E-1,-7.916126251E-1,-7.643966675E-1
1.427536765E1,5.196164250E-1,-6.328024864E-1,-1.105857372E0
1.428533165E1,6.377835274E-1,-4.892687798E-1,-1.412921906E0
1.429629665E1,7.604463100E-1,-3.680076599E-1,-1.767422676E0
1.430560365E1,8.722547293E-1,-3.176465034E-1,-2.023431301E0
1.431551665E1,9.815846682E-1,-2.981648445E-1,-2.106738091E0
1.432530765E1,1.040798187E0,-2.819476128E-1,-2.042230129E0
1.433546165E1,1.020022035E0,-2.514986992E-1,-1.848626137E0
1.434692265E1,9.274147153E-1,-2.610116005E-1,-1.577600479E0
1.435555065E1,8.139952421E-1,-3.053460121E-1,-1.141456127E0
1.436627365E1,7.117304802E-1,-3.259620667E-1,-7.228074074E-1
1.437553165E1,6.598103642E-1,-3.077096939E-1,-3.615970612E-1
1.438536165E1,6.796202660E-1,-2.666687965E-1,-5.317974091E-2
1.439534765E1,7.325536609E-1,-2.049298286E-1,1.328611374E-1
1.440567265E1,7.934271097E-1,-8.276081085E-2,2.091522217E-1
1.441577865E1,8.932930231E-1,4.171800613E-2,2.302036285E-1
1.442557565E1,9.979726076E-1,1.710610390E-1,2.305946350E-1
1.443545465E1,1.088015914E0,2.754273415E-1,2.359018326E-1
1.444535465E1,1.117558956E0,3.480129242E-1,2.308864594E-1
1.445552765E1,1.075206995E0,4.008893967E-1,2.884159088E-1
1.446603365E1,9.881948233E-1,4.419608116E-1,4.314718246E-1
1.447540765E1,9.001195431E-1,4.686479568E-1,6.141567230E-1
1.448561865E1,8.336914778E-1,4.654436111E-1,8.060617447E-1
1.449640665E1,5.018279552E-1,3.672552109E-1,1.023981094E0
1.450538565E1,3.504655957E-1,2.499499321E-1,1.201353073E0
1.451580865E1,3.517950773E-1,1.088271141E-1,1.343831062E0
1.452539865E1,3.004797697E-1,2.932500839E-2,1.430147171E0
1.453537565E1,1.730159968E-1,6.026506424E-2,1.447165489E0
1.454767465E1,-6.864304096E-2,3.997154236E-1,1.543106079E0
1.456543265E1,-1.062327474E-1,1.048456192E0,1.899330139E0
1.457537865E1,5.223244429E-2,1.301414967E0,2.087410927E0
1.458542565E1,1.872169673E-1,1.455270290E0,2.247902870E0
1.459541065E1,2.579255402E-1,1.569237709E0,2.192694664E0
1.460565265E1,1.967392564E-1,1.548352242E0,2.159382820E0
1.461593565E1,2.009220868E-1,1.385370731E0,2.164991379E0
1.462555865E1,2.341429591E-1,1.094451904E0,2.222048759E0
1.463543865E1,2.933801711E-1,6.405630112E-1,2.262239456E0
1.464545765E1,4.644005895E-1,6.405115128E-2,2.519539833E0
1.465546165E1,5.361435413E-1,-4.933729172E-1,2.744596481E0
1.466562865E1,4.172813892E-1,-1.003989935E0,2.767226219E0
1.467541865E1,6.360504031E-2,-1.486163616E0,2.741060257E0
1.468561565E1,-4.600636065E-1,-1.897003889E0,2.515256882E0
1.469542065E1,-1.017191887E0,-2.261123896E0,2.060226440E0
1.470542065E1,-1.462194324E0,-2.390008926E0,1.598360062E0
1.471648265E1,-1.797511578E0,-2.317198038E0,1.108010292E0
1.472565765E1,-1.901490092E0,-2.200035572E0,6.949834824E-1
1.473538365E1,-1.848588109E0,-2.082648754E0,3.364391327E-1
1.474534565E1,-1.686928988E0,-1.956609964E0,-2.378034592E-1
1.475538265E1,-1.464729786E0,-1.847688437E0,-7.370080948E-1
1.476539765E1,-1.192353487E0,-1.755093575E0,-1.051224232E0
1.477551465E1,-9.171998501E-1,-1.679898262E0,-1.460399151E0
1.478566065E1,-5.439987779E-1,-1.663552999E0,-1.723709106E0
1.479542565E1,-1.634321809E-1,-1.694990635E0,-1.795652866E0
1.480548065E1,5.282703042E-2,-1.830945730E0,-1.554820061E0
1.481539365E1,1.103863716E-1,-1.965993404E0,-1.106026649E0
1.482531965E1,7.964169979E-2,-2.068705797E0,-6.186852455E-1
1.483573765E1,-4.876038432E-2,-2.120719910E0,-1.563320160E-1
1.484562865E1,-3.660869598E-1,-2.083269596E0,2.806625366E-1
1.485548665E1,-6.743900776E-1,-1.998061180E0,4.976692200E-1
1.486537365E1,-8.710669875E-1,-1.885236263E0,5.557556152E-1
1.487541865E1,-9.456571341E-1,-1.761482239E0,4.971637726E-1
1.488558065E1,-8.590571880E-1,-1.536137104E0,3.124847412E-1
1.489547165E1,-6.000071764E-1,-1.282973766E0,-2.214717865E-2
1.490554065E1,-3.136857152E-1,-1.059703112E0,-3.107662201E-1
1.491537365E1,-3.381431103E-2,-8.373861313E-1,-7.131481171E-1
1.492559365E1,1.151455343E-1,-6.135764122E-1,-1.197184086E0
1.493550965E1,1.242144108E-1,-4.630117416E-1,-1.677647114E0
1.494537865E1,3.014379740E-2,-3.611512184E-1,-1.996329308E0
1.495611365E1,-1.200200021E-1,-2.974953651E-1,-2.242354870E0
1.496564965E1,-2.958607376E-1,-2.668986320E-1,-2.341159344E0
1.497569365E1,-4.842839539E-1,-2.481880188E-1,-2.230586052E0
1.498534465E1,-6.257647276E-1,-2.413249016E-1,-1.967413425E0
1.499568165E1,-7.312123775E-1,-2.026295662E-1,-1.518698692E0
1.500690065E1,-7.450130582E-1,-1.242928505E-1,-1.101048946E0
1.501543765E1,-6.386014223E-1,-7.983779907E-2,-7.024645805E-1
1.502554565E1,-5.712813139E-1,-2.350139618E-2,-3.222236633E-1
1.503541565E1,-6.066069007E-1,8.454942703E-2,-4.246807098E-2
1.504550765E1,-6.136280298E-1,2.020468712E-1,7.555484772E-2
1.505613765E1,-5.937536955E-1,2.611036301E-1,2.699413300E-1
1.506533665E1,-4.231875837E-1,2.412748337E-1,3.009595871E-1
1.507544065E1,-2.922806740E-1,1.884546280E-1,4.233274460E-1
1.508533565E1,-2.362963557E-1,1.701822281E-1,5.159568787E-1
1.509535865E1,-3.051719069E-1,1.871452332E-1,9.332933426E-1
1.510597365E1,-4.372082949E-1,2.279872894E-1,1.010429382E0
1.511534465E1,-3.619921207E-1,2.020130157E-1,9.962024689E-1
1.512574065E1,-2.822571397E-1,1.862607002E-1,8.724517822E-1
1.513544765E1,-2.039721608E-1,2.094874382E-1,7.650527954E-1
1.514540865E1,-1.603325605E-1,2.613444328E-1,7.670412064E-1
1.515548965E1,-1.581999660E-1,3.776550293E-1,8.466196060E-1
1.516542165E1,-1.352931857E-1,5.123329163E-1,9.974317551E-1
1.517585465E1,-9.934055805E-2,6.171174049E-1,1.115179062E0
1.518534565E1,-1.165438890E-1,7.319769859E-1,1.281003952E0
1.519532365E1,-1.778539419E-1,9.146847725E-1,1.602884293E0
1.520555365E1,-1.697766781E-1,1.148328304E0,1.732844353E0
1.521541165E1,-2.531254292E-2,1.310152531E0,1.881938934E0
1.522542765E1,2.695785761E-1,1.404697418E0,1.976327896E0
1.523537265E1,6.519236565E-1,1.470202446E0,2.238519669E0
1.524557965E1,1.087000728E0,1.479819775E0,2.609712601E0
1.525536865E1,1.564135551E0,1.297575474E0,2.965726852E0
1.526552765E1,2.110492229E0,8.659334183E-1,3.383909225E0
1.527546665E1,2.467887402E0,3.894729614E-1,3.631546974E0
1.528553165E1,2.619172096E0,-1.444687843E-1,3.532828331E0
1.529542465E1,2.497812271E0,-5.908746719E-1,3.320555687E0
1.530577565E1,2.130237103E0,-9.214062691E-1,2.903680801E0
1.531541565E1,1.661827683E0,-1.249044180E0,2.210864067E0
1.532556765E1,1.196048498E0,-1.516634464E0,1.352094650E0
1.533625865E1,7.932521701E-1,-1.786714077E0,6.798820496E-1
1.534539865E1,5.228211880E-1,-1.971462011E0,2.101058960E-1
1.535551765E1,1.990630031E-1,-1.964103699E0,-2.425098419E-1
1.536550565E1,-1.394376755E-1,-1.839497566E0,-6.479320526E-1
1.537563965E1,-3.275851011E-1,-1.795228481E0,-1.101861477E0
1.538572365E1,-2.827931643E-1,-1.815787792E0,-1.542478561E0
1.539537265E1,-4.642713070E-2,-1.823552847E0,-1.821234226E0
1.540732965E1,3.955775201E-1,-1.797544003E0,-1.921129704E0
1.541539365E1,8.685522079E-1,-1.810382128E0,-1.929837704E0
1.542539665E1,1.261517525E0,-1.880805016E0,-1.870982647E0
1.543537065E1,1.538974524E0,-1.931529045E0,-1.514545918E0
1.544544765E1,1.657087326E0,-1.955145121E0,-9.656052589E-1
1.545685365E1,1.602805614E0,-1.904731750E0,-5.098586082E-1
1.546543865E1,1.349660397E0,-1.858634472E0,-1.674947739E-1
1.547538865E1,9.022235870E-1,-1.771483421E0,7.275199890E-2
1.548555865E1,4.128929675E-1,-1.707106590E0,1.932115555E-1
1.549556365E1,-3.339302540E-2,-1.620822668E0,2.131128311E-1
1.550536165E1,-3.503305316E-1,-1.499249458E0,2.134714127E-1
1.551540565E1,-4.407842755E-1,-1.363600492E0,8.280277252E-2
1.552536765E1,-2.534111142E-1,-1.235911608E0,-1.916522980E-1
1.553539965E1,1.771053076E-1,-1.075366974E0,-6.136126518E-1
1.554542565E1,5.972622633E-1,-8.415303230E-1,-1.014656544E0
1.555559865E1,8.603652120E-1,-6.051826477E-1,-1.318945408E0
1.556535865E1,1.078400373E0,-4.372925758E-1,-1.687396049E0
1.557623765E1,1.174672008E0,-3.545298576E-1,-2.027116299E0
1.558553365E1,1.159895062E0,-2.739739418E-1,-2.254786015E0
1.559548665E1,1.021718383E0,-1.832771301E-1,-2.294706821E0
1.560550565E1,8.043277264E-1,-1.016044617E-1,-2.239588737E0
1.561534365E1,5.391943455E-1,-3.105401993E-2,-2.046077251E0
1.563190865E1,1.394551992E-1,-3.294849396E-2,-1.383083820E0
1.564549565E1,4.088306427E-2,1.227378845E-3,-4.966063499E-1
1.565592965E1,1.017169952E-1,3.914976120E-2,-5.007839203E-2
1.566598765E1,1.856716871E-1,7.667684555E-2,3.110227585E-1
1.567539765E1,2.859169841E-1,1.627569199E-1,6.451044083E-1
1.568539765E1,4.216834903E-1,2.734603882E-1,9.304838181E-1
1.569535665E1,5.647584796E-1,3.403511047E-1,1.077221870E0
1.570689265E1,6.267805099E-1,3.418841362E-1,1.095719337E0
1.571543365E1,5.586718917E-1,3.583784103E-1,1.187923431E0
1.572593465E1,4.280490279E-1,3.863763809E-1,1.236395836E0
1.573540265E1,3.894419670E-1,3.532042503E-1,1.232105255E0
1.574648565E1,4.334201217E-1,2.588882446E-1,1.253112793E0
1.575572465E1,5.056947470E-1,1.849250793E-1,1.325476646E0
1.576542465E1,4.908117652E-1,1.535696983E-1,1.473612785E0
1.577543265E1,4.412374496E-1,1.632003784E-1,1.643311501E0
1.578554765E1,4.639410377E-1,1.122941971E-1,1.827328682E0
1.579541465E1,4.735405445E-1,1.417336464E-1,1.866020203E0
1.580549865E1,4.233748317E-1,1.983494759E-1,1.823756218E0
1.581601665E1,2.462145090E-1,3.401722908E-1,1.734513283E0
1.582577865E1,-2.535164356E-2,6.065850258E-1,1.646770477E0
1.583543765E1,-2.602691650E-1,8.603339195E-1,1.567205429E0
1.584545365E1,-3.907977343E-1,1.030391216E0,1.554465294E0
1.585577265E1,-3.880367279E-1,1.176910877E0,1.786202431E0
1.586617465E1,-2.540392876E-1,1.212430000E0,2.132777214E0
1.587548365E1,3.840923309E-2,1.051247120E0,2.458568573E0
1.588534565E1,4.456719756E-1,7.893657684E-1,2.900758743E0
1.589536365E1,8.169587851E-1,3.816399574E-1,3.212249756E0
1.590542465E1,1.171258092E0,-1.584472656E-1,3.337898254E0
1.591602165E1,1.327632666E0,-7.202262878E-1,3.216301918E0
1.592551165E1,1.148467183E0,-1.258601665E0,3.080344200E0
1.593534665E1,5.882024765E-1,-1.682781935E0,2.770124435E0
1.594540265E1,-6.574332714E-2,-1.959491491E0,2.275006294E0
1.595547365E1,-5.110424757E-1,-2.205131054E0,1.799993515E0
1.596542265E1,-8.402134180E-1,-2.321750164E0,1.275123596E0
1.597561865E1,-1.064473748E0,-2.264269352E0,6.584720612E-1
1.598569765E1,-1.193028927E0,-2.146571875E0,1.049861908E-1
1.599561465E1,-1.130610704E0,-2.080439329E0,-6.001396179E-1
1.600588565E1,-9.923628569E-1,-2.001522064E0,-1.282474518E0
1.601541265E1,-9.216243029E-1,-1.836412907E0,-1.787841797E0
1.602547365E1,-8.999522924E-1,-1.624807835E0,-2.274830341E0
1.603538565E1,-8.290706873E-1,-1.533444405E0,-2.550738811E0
1.604564865E1,-6.235455275E-1,-1.476833344E0,-2.705312729E0
1.605582165E1,-3.060716987E-1,-1.460771561E0,-2.656342030E0
1.606532365E1,6.151437759E-2,-1.526638985E0,-2.402698040E0
1.607539565E1,3.365361392E-1,-1.640248299E0,-1.792946815E0
1.608533465E1,4.551734924E-1,-1.854707003E0,-1.074145317E0
1.609538265E1,4.975252151E-1,-2.047475100E0,-4.269733429E-1
1.610555665E1,2.670680583E-1,-2.108369827E0,3.512105942E-1
1.611537365E1,-1.346673965E-1,-2.050024748E0,1.005359650E0
1.612563265E1,-5.089383721E-1,-2.031230688E0,1.349002838E0
1.613532065E1,-7.363155484E-1,-2.085584164E0,1.388297081E0
1.614538565E1,-8.994894028E-1,-2.049532413E0,1.332060814E0
1.615540565E1,-9.334539771E-1,-1.910894394E0,1.185570717E0
1.616548165E1,-4.486732483E-1,-1.438949823E0,7.396860123E-1
1.617597465E1,-1.165652275E-1,-1.266891479E0,2.288436890E-1
1.618534565E1,1.747789383E-1,-1.120268822E0,-4.574522972E-1
1.619543565E1,3.262505829E-1,-9.732384682E-1,-1.137020111E0
1.620575765E1,3.674599826E-1,-8.203773499E-1,-1.711050987E0
1.621541565E1,2.912405431E-1,-6.490688324E-1,-2.097267151E0
1.622682065E1,1.833961010E-1,-4.554934502E-1,-2.347683430E0
1.623538065E1,1.224497557E-1,-2.677516937E-1,-2.546889782E0
1.624539865E1,8.733135462E-2,-1.611924171E-1,-2.551896095E0
1.625540565E1,5.192792416E-2,-9.756040573E-2,-2.324784279E0
1.626580065E1,-8.034092188E-2,1.187801361E-3,-1.933943748E0
1.627540765E1,-2.895556688E-1,1.438474655E-1,-1.541758060E0
1.628552265E1,-4.561636448E-1,2.265706062E-1,-1.093144894E0
1.629577965E1,-5.537618995E-1,2.657456398E-1,-6.178665161E-1
1.630553065E1,-5.800690651E-1,3.593807220E-1,-1.354799271E-1
1.631542565E1,-4.967524409E-1,4.671168327E-1,1.963996887E-1
1.632536165E1,-3.242939115E-1,5.235214233E-1,4.240713120E-1
1.633551365E1,-1.891655922E-1,5.867729187E-1,5.558719635E-1
1.634565765E1,-1.880938411E-1,6.108751297E-1,6.664915085E-1
1.635533465E1,-2.934313416E-1,6.367368698E-1,7.751636505E-1
1.636597265E1,-4.185373783E-1,6.347727776E-1,7.940673828E-1
1.637539265E1,-5.412348509E-1,6.117734909E-1,8.031311035E-1
1.638536365E1,-6.217390299E-1,5.517711639E-1,8.650884628E-1
1.639538765E1,-6.320318580E-1,4.734468460E-1,1.045979500E0
1.640572565E1,-5.891554952E-1,3.629612923E-1,1.502014160E0
1.641592865E1,-6.448817253E-1,3.616971970E-1,1.721396446E0
1.642544765E1,-7.733866572E-1,3.533854485E-1,2.079570770E0
1.643549765E1,-9.451024532E-1,4.670996666E-1,2.247942924E0
1.644542065E1,-1.059797764E0,6.003751755E-1,2.302092552E0
1.645543065E1,-1.018991470E0,7.732686996E-1,2.391288757E0
1.646547965E1,-9.387822151E-1,1.022253036E0,2.466419220E0
1.647532565E1,-7.159284353E-1,1.173690796E0,2.432371140E0
1.648534365E1,-3.037134707E-1,1.230666161E0,2.503271103E0
1.649539865E1,3.537175059E-2,1.334800243E0,2.706064224E0
1.650547865E1,4.257541895E-1,1.309208870E0,2.920089722E0
1.651535065E1,9.233525991E-1,1.105179310E0,3.282307625E0
1.652550365E1,1.414491892E0,7.603507042E-1,3.642582893E0
1.653540065E1,1.827039957E0,3.138661385E-1,3.736482620E0
1.654539565E1,2.137261152E0,-3.149232864E-1,3.514358521E0
1.655545965E1,2.079304457E0,-9.160685539E-1,3.216854095E0
1.656608765E1,1.760563493E0,-1.393002033E0,2.636355400E0
1.657541365E1,1.228240609E0,-1.710896254E0,2.071806908E0
1.658578865E1,5.562441945E-1,-1.887955189E0,1.469242096E0
1.659591765E1,1.426024437E-1,-2.137401342E0,8.225898743E-1
1.660537065E1,-1.602306962E-2,-2.438401461E0,2.139549255E-1
1.661540965E1,-2.087294012E-1,-2.582732439E0,-3.408842087E-1
1.662591065E1,-3.837314546E-1,-2.599610806E0,-8.273077011E-1
1.663540365E1,-5.104464293E-1,-2.547676802E0,-1.281759739E0
1.665001165E1,-3.726686537E-1,-2.400756359E0,-1.763568401E0
1.666562165E1,-8.338424563E-2,-2.327399969E0,-1.808346272E0
1.667563465E1,3.529173732E-1,-2.397995710E0,-1.791011810E0
1.668546565E1,6.775970459E-1,-2.447716951E0,-1.394958973E0
1.669566465E1,5.921066403E-1,-2.438915253E0,-4.739842415E-1
1.670573265E1,3.379331231E-1,-2.460495710E0,-2.148437500E-2
1.671541265E1,-8.031243086E-2,-2.338301420E0,3.484525681E-1
1.672932065E1,-4.682707489E-1,-2.152285576E0,6.753778458E-1
1.674535765E1,-6.859313250E-1,-1.945878029E0,6.959533691E-1
1.675536465E1,-5.318593979E-1,-1.824608326E0,4.869461060E-1
1.676542565E1,-3.261553645E-1,-1.667186975E0,1.770381927E-1
1.677938565E1,-5.614024401E-2,-1.439508438E0,-2.218084335E-1
1.679536265E1,2.642549276E-1,-9.872751236E-1,-1.266616821E0
1.680557265E1,2.870557904E-1,-7.719812393E-1,-1.700541973E0
1.681583165E1,3.159619868E-1,-5.479397774E-1,-2.012963295E0
1.682560565E1,4.086645842E-1,-3.650994301E-1,-2.290144920E0
1.683535665E1,5.328400731E-1,-2.406983376E-1,-2.383488178E0
1.684533565E1,6.904098988E-1,-9.905385971E-2,-2.250803471E0
1.685549565E1,8.133834004E-1,-2.531337738E-2,-1.956758499E0
1.686605365E1,8.152399659E-1,3.959321976E-2,-1.593073368E0
1.687564665E1,6.775846481E-1,3.440713882E-2,-1.128069878E0
1.688556165E1,4.368202686E-1,1.297998428E-2,-6.389389038E-1
1.689542365E1,1.719455719E-1,-2.592706680E-2,-1.990032196E-1
1.690548165E1,-1.227128506E-2,-5.212974548E-2,1.910419464E-1
1.691582665E1,-1.225562692E-1,-4.112243652E-2,5.600681305E-1
1.692535165E1,-1.318002343E-1,2.109861374E-2,8.738670349E-1
1.693553765E1,-4.022651911E-2,5.767440796E-2,1.122597694E0
1.694551565E1,9.673982859E-2,1.254563332E-1,1.204459190E0
1.695540965E1,2.698062658E-1,1.580805779E-1,1.209685326E0
1.696552165E1,3.952018023E-1,1.646218300E-1,1.178623199E0
1.697537065E1,4.451276064E-1,2.283515930E-1,1.147237778E0
1.698570765E1,4.747889936E-1,2.811384201E-1,1.147489548E0
1.699539265E1,4.377836585E-1,2.928600311E-1,1.242650032E0
1.700559265E1,3.433814943E-1,2.966465950E-1,1.352489471E0
1.701565765E1,2.675779164E-1,2.323656082E-1,1.470150948E0
1.702562165E1,1.748988926E-1,1.288447380E-1,1.643132210E0
1.703560565E1,5.030614138E-2,5.839681625E-2,1.798169136E0
1.704563665E1,4.661440849E-3,1.006317139E-2,1.916399002E0
1.705533665E1,4.245805740E-2,-4.203891754E-2,1.920953751E0
1.706546265E1,1.187063456E-1,-3.281974792E-2,1.805220604E0
1.707537665E1,1.966782808E-1,2.615118027E-2,1.672523499E0
1.708588265E1,2.821438611E-1,1.942152977E-1,1.536050797E0
1.709584365E1,3.412908018E-1,4.476342201E-1,1.392827034E0
1.710543165E1,2.864880562E-1,7.592730522E-1,1.330669403E0
1.711537165E1,1.535036564E-1,1.042430401E0,1.285916328E0
1.712533265E1,-7.513761520E-4,1.226691723E0,1.247539520E0
1.713548765E1,-1.410157084E-1,1.333783150E0,1.243653297E0
1.714551565E1,-2.548992038E-1,1.370975018E0,1.301666260E0
1.715538165E1,-2.230374813E-1,1.222210884E0,1.399027824E0
1.716579565E1,-4.365146160E-4,8.894963264E-1,1.458959579E0
1.717539365E1,3.662059009E-1,3.570456505E-1,1.839102745E0
1.718552365E1,6.805793047E-1,-2.734999657E-1,2.230078697E0
1.719538265E1,9.000772238E-1,-9.010710716E-1,2.428611755E0
1.720559865E1,5.718510747E-1,-1.346461296E0,2.636397362E0
1.721530765E1,-8.366435766E-2,-1.646912813E0,2.731363297E0
1.722550965E1,-8.109490275E-1,-2.011214972E0,2.631965637E0
1.723599965E1,-1.941466093E0,-2.606135130E0,1.567127228E0
1.724563465E1,-2.229670763E0,-2.652086735E0,1.000380516E0
1.725536465E1,-2.296531677E0,-2.592644453E0,4.768447876E-1
1.726543165E1,-2.258257627E0,-2.376782894E0,-1.422405243E-2
1.727542665E1,-1.995514870E0,-2.174166441E0,-5.151987076E-1
1.728542065E1,-1.528914690E0,-2.105746746E0,-9.772667885E-1
1.729534465E1,-1.075371504E0,-2.050968409E0,-1.422515869E0
1.730565965E1,-6.957372427E-1,-2.016530752E0,-1.758644104E0
1.731564165E1,-4.204965830E-1,-2.011973619E0,-1.793693542E0
1.732543365E1,-2.430379391E-1,-2.056014299E0,-1.634283543E0
1.733537265E1,-1.341917813E-1,-2.161969900E0,-1.288613796E0
1.734604865E1,-6.941491365E-2,-2.314121962E0,-8.254561424E-1
1.735599365E1,-5.051001906E-2,-2.446312428E0,-3.048686981E-1
1.736555265E1,-1.350778937E-1,-2.434659004E0,4.416322708E-2
1.737537565E1,-3.009318709E-1,-2.372734547E0,3.474521637E-1
1.738550165E1,-4.082290530E-1,-2.304073572E0,5.584344864E-1
1.739545665E1,-4.849195480E-1,-2.250081539E0,4.989938736E-1
1.740645665E1,-4.895695448E-1,-2.176324606E0,3.029699326E-1
1.741545265E1,-4.852651060E-1,-2.004764080E0,1.409854889E-1
1.742573165E1,-4.669805169E-1,-1.777226448E0,-9.377765656E-2
1.743536965E1,-3.523376882E-1,-1.549468040E0,-4.271497726E-1
1.744537765E1,-1.873949766E-1,-1.386110306E0,-7.227406502E-1
1.745532565E1,-2.661401033E-2,-1.233068466E0,-1.126632214E0
1.746551365E1,3.724765778E-2,-1.032680035E0,-1.464596272E0
1.747821065E1,9.220093489E-3,-8.872799873E-1,-1.696198940E0
1.749538365E1,-1.071226895E-1,-7.035083771E-1,-1.980195045E0
1.750541765E1,-2.482813895E-1,-5.888333321E-1,-1.937738419E0
1.751587165E1,-4.101876616E-1,-4.535188675E-1,-1.721895218E0
1.752547565E1,-6.038501263E-1,-3.693137169E-1,-1.446147442E0
1.753536865E1,-7.298125029E-1,-2.941660881E-1,-9.912705421E-1
1.754872465E1,-7.957330942E-1,-2.205977440E-1,-5.792350769E-1
1.756537065E1,-7.867933512E-1,-1.393308640E-1,1.101398468E-2
1.757754465E1,-7.663719058E-1,-9.195661545E-2,3.017883301E-1
1.758556765E1,-7.831685543E-1,-2.720975876E-2,5.077257156E-1
1.759543165E1,-7.976581454E-1,-1.544761658E-2,6.592340469E-1
1.760549665E1,-5.556691885E-1,9.060144424E-2,8.088922501E-1
1.761551465E1,-6.403445601E-1,1.785621643E-1,9.108686447E-1
1.762679365E1,-6.733460426E-1,1.888761520E-1,1.019351959E0
1.763539465E1,-6.707699299E-1,1.718330383E-1,1.206157684E0
1.764547765E1,-6.724418402E-1,1.362166405E-1,1.302914619E0
1.765543965E1,-6.791948080E-1,3.559160233E-2,1.424398422E0
1.766546165E1,-7.267872095E-1,-2.558708191E-2,1.668211937E0
1.767549265E1,-7.954401970E-1,4.934787750E-3,1.888576508E0
1.768584765E1,-8.791896701E-1,2.152299881E-2,2.126308441E0
1.769534965E1,-9.458982944E-1,8.540201187E-2,2.326782227E0
1.770533365E1,-9.620071650E-1,1.916890144E-1,2.411890984E0
1.771549965E1,-8.179475665E-1,3.022241592E-1,2.495204926E0
1.772553765E1,-5.936716795E-1,4.628734589E-1,2.544203758E0
1.773614965E1,1.242857128E-1,8.012752533E-1,2.375817299E0
1.774584765E1,8.427110314E-2,7.723517418E-1,2.392858505E0
1.775533865E1,4.232426584E-1,8.506779671E-1,2.326704979E0
1.776534265E1,7.846778035E-1,8.126935959E-1,2.244715691E0
1.777539265E1,1.599677682E0,3.835825920E-1,2.205366135E0
1.778570665E1,1.867184043E0,1.242485046E-1,2.300317764E0
1.779552565E1,1.914301395E0,-1.661629677E-1,2.357069969E0
1.780544865E1,1.731556654E0,-4.549994469E-1,2.325905800E0
1.781539865E1,1.391997218E0,-7.741804123E-1,2.089167595E0
1.782547265E1,9.818747640E-1,-1.158339977E0,1.729196548E0
1.783869165E1,5.846334100E-1,-1.443996668E0,1.372603416E0
1.785531265E1,1.919671893E-2,-1.667093754E0,7.838249207E-1
1.786534865E1,-6.119958684E-2,-1.763355970E0,4.318008423E-1
1.787547765E1,-9.630933404E-2,-1.871056795E0,2.109622955E-2
1.788637665E1,-6.053542346E-2,-1.953404188E0,-3.619122505E-1
1.789538165E1,-5.011340231E-2,-1.947653770E0,-7.345423698E-1
1.790534665E1,6.794336438E-2,-1.836426258E0,-1.010476589E0
1.791549265E1,4.646361470E-1,-1.776596308E0,-1.099646568E0
1.792557165E1,1.010716200E0,-1.835578680E0,-1.167757511E0
1.793535065E1,1.455190301E0,-1.890748501E0,-1.115284920E0
1.794551065E1,1.738461733E0,-1.882184505E0,-8.461642265E-1
1.795542965E1,1.828404546E0,-1.860944748E0,-4.362387657E-1
1.796548465E1,1.697133541E0,-1.853435993E0,-1.303405762E-1
1.797552865E1,1.325249314E0,-1.885759592E0,1.128854752E-1
1.798569865E1,7.612200975E-1,-1.786955833E0,2.010669708E-1
1.799559565E1,1.620728672E-1,-1.634685516E0,1.954536438E-1
1.800667465E1,-2.767113447E-1,-1.544054508E0,1.002759933E-1
1.801536065E1,-5.432030559E-1,-1.511638165E0,-1.305561066E-1
1.802535465E1,-6.090489030E-1,-1.481578827E0,-4.132089615E-1
1.803551465E1,-5.166313052E-1,-1.398265362E0,-7.466526031E-1
1.804567565E1,-2.997407913E-1,-1.296126127E0,-1.207458019E0
1.805658665E1,-1.382838488E-1,-1.129432440E0,-1.494959354E0
1.806559665E1,-1.097790897E-2,-9.139537811E-1,-1.669359684E0
1.807539765E1,1.492186487E-1,-8.023147583E-1,-1.928365231E0
1.808556665E1,3.819131851E-1,-7.228112221E-1,-2.199107170E0
1.809539065E1,4.920211434E-1,-6.621274948E-1,-2.328230381E0
1.810536765E1,4.072418213E-1,-6.040120125E-1,-2.322432041E0
1.811543165E1,1.415865272E-1,-5.411624908E-1,-2.029510021E0
1.812560965E1,-2.036136687E-1,-5.090408325E-1,-1.670035362E0
1.813539265E1,-4.703555703E-1,-5.116987228E-1,-1.229042530E0
1.814557265E1,-6.557449102E-1,-4.914040565E-1,-7.209300995E-1
1.815564965E1,-7.356458306E-1,-4.093647003E-1,-2.980623245E-1
1.816555465E1,-6.045349240E-1,-3.311815262E-1,1.606206894E-1
1.817548165E1,-3.233931661E-1,-2.124180794E-1,6.653070450E-1
1.818537365E1,7.265344262E-2,-6.765031815E-2,8.944406509E-1
1.819539265E1,5.195768476E-1,-3.386974335E-3,9.360179901E-1
1.820532665E1,8.816039562E-1,6.456279755E-2,9.594335556E-1
1.821545865E1,1.090791225E0,2.106738091E-1,9.890146255E-1
1.822704465E1,1.162821770E0,3.238010406E-1,5.452699661E-1
1.823532265E1,1.082534671E0,3.192739487E-1,5.567054749E-1
1.824535365E1,8.089607954E-1,2.857785225E-1,4.312686920E-1
1.825561365E1,4.733822048E-1,3.228244781E-1,4.107313156E-1
1.826544465E1,2.127053440E-1,3.160686493E-1,4.199752808E-1
1.827549665E1,7.426071167E-2,2.123475075E-1,6.020917892E-1
1.828533965E1,1.516324282E-2,1.330928802E-1,9.315109253E-1
1.829535965E1,6.007218361E-2,3.181076050E-2,1.311069489E0
1.830541665E1,7.508766651E-2,-1.542267799E-1,1.783911705E0
1.831534465E1,-5.291104317E-3,-1.320137978E-1,1.850658417E0
1.832545765E1,-9.645545483E-2,-9.662437439E-2,1.853827477E0
1.833562765E1,-2.636396885E-1,6.912422180E-2,1.795569420E0
1.834549365E1,-4.561123252E-1,3.778347969E-1,1.765099525E0
1.835539165E1,-5.143982172E-1,6.667747498E-1,1.698062897E0
1.836537765E1,-4.666435719E-1,9.130830765E-1,1.595930099E0
1.837575465E1,-4.191042185E-1,1.170544147E0,1.531661987E0
1.838533365E1,-3.839668632E-1,1.408868313E0,1.510212898E0
1.839542065E1,-2.399803400E-1,1.463751793E0,1.524462700E0
1.840533765E1,4.206025600E-2,1.242383003E0,1.732903481E0
1.841538365E1,3.327907920E-1,8.617796898E-1,2.096660614E0
1.842545365E1,5.999557972E-1,3.468251228E-1,2.601586342E0
1.843533565E1,8.122956157E-1,-2.154698372E-1,2.973861694E0
1.844553765E1,7.451866865E-1,-8.238101006E-1,3.155509949E0
1.845532265E1,2.338336706E-1,-1.357431889E0,3.225402832E0
1.846545165E1,-4.898926616E-1,-1.776481867E0,3.253053665E0
1.847540465E1,-1.182156920E0,-2.107487202E0,2.977108955E0
1.848549765E1,-1.677684069E0,-2.248025417E0,2.611970901E0
1.849608965E1,-1.893184423E0,-2.164499283E0,2.234170914E0
1.850540265E1,-1.812105179E0,-2.056959391E0,1.806941986E0
1.851532665E1,-1.489713430E0,-1.986966848E0,1.315343857E0
1.852549165E1,-1.095006704E0,-1.931393862E0,6.650733948E-1
1.853536265E1,-6.678608060E-1,-1.932859182E0,-7.590198517E-2
1.854536265E1,-3.348324895E-1,-1.923092604E0,-6.408977509E-1
1.855546265E1,-9.874391556E-2,-1.866657734E0,-1.028221130E0
1.856557865E1,1.142632365E-1,-1.845447779E0,-1.315417290E0
1.857539965E1,3.263126910E-1,-1.921447277E0,-1.482767582E0
1.858549465E1,4.851023555E-1,-2.047636986E0,-1.411325932E0
1.859534665E1,5.461844206E-1,-2.099291086E0,-1.140487671E0
1.860546165E1,4.871379137E-1,-2.101439953E0,-8.286042213E-1
1.861543665E1,3.439091444E-1,-2.079818726E0,-5.708036423E-1
1.862549265E1,1.597802341E-1,-2.034843445E0,-2.805948257E-1
1.863571965E1,-1.709282398E-3,-1.978926897E0,-7.204627991E-2
1.864553265E1,-1.057464480E-1,-1.850540161E0,-5.210590363E-2
1.865554265E1,-1.160394549E-1,-1.699752331E0,-2.034511566E-1
1.866573365E1,9.815692902E-4,-1.619192362E0,-4.294147491E-1
1.867543065E1,9.643748403E-2,-1.511217594E0,-6.669869423E-1
1.868535965E1,5.220261216E-2,-1.379304647E0,-8.681607246E-1
1.869553065E1,4.342442751E-2,-1.234850883E0,-1.104495049E0
1.870537765E1,6.348139048E-2,-1.100897312E0,-1.416478157E0
1.871537865E1,8.453282714E-2,-1.049746990E0,-1.561909199E0
1.872535865E1,1.072647274E-1,-9.946575165E-1,-1.601720333E0
1.873541165E1,1.382356286E-1,-9.085845947E-1,-1.627340317E0
1.874552265E1,1.710439771E-1,-8.118104935E-1,-1.512947083E0
1.875604665E1,1.063260138E-1,-6.733107567E-1,-1.360136986E0
1.876552565E1,3.986832500E-2,-5.770449638E-1,-1.151750565E0
1.877995765E1,-1.777721047E-1,-3.431859016E-1,-7.081513405E-1
1.879552865E1,-1.955032945E-1,-2.782979012E-1,-3.860583305E-1
1.880533865E1,-1.853694320E-1,-2.261586189E-1,-1.678991318E-1
1.881545465E1,-2.232460231E-1,-1.554803848E-1,2.103233337E-2
1.882552765E1,-2.617103457E-1,-8.500766754E-2,9.748840332E-2
1.883541565E1,-1.666823924E-1,-5.838155746E-2,5.142879486E-2
1.884550265E1,-1.960495114E-1,8.290576935E-2,4.746246338E-2
1.885593565E1,-1.875159442E-1,1.522264481E-1,1.143589020E-1
1.886579165E1,-2.250758410E-1,2.190141678E-1,2.238140106E-1
1.887539765E1,-1.947398782E-1,2.415137291E-1,4.897480011E-1
1.888544365E1,-7.654428482E-2,2.099914551E-1,7.863006592E-1
1.889542465E1,6.587854028E-2,1.555976868E-1,1.062388420E0
1.890568765E1,1.598601639E-1,1.268954277E-1,1.327630043E0
1.891537765E1,2.156181335E-1,9.190130234E-2,1.467931747E0
1.892564865E1,1.453790814E-1,1.168632507E-1,1.595159531E0
1.893537565E1,-4.204699397E-2,2.568421364E-1,1.679276466E0
1.894571965E1,-2.555176020E-1,4.318494797E-1,1.740005493E0
1.895542365E1,-3.912427127E-1,5.717444420E-1,1.761093140E0
1.896533765E1,-4.322836399E-1,7.172045708E-1,1.746216774E0
1.897634065E1,-3.872036934E-1,8.651633263E-1,1.684515953E0
1.898558465E1,-2.881500125E-1,1.009256363E0,1.577099800E0
1.899550065E1,-7.552491128E-2,1.092597485E0,1.516953468E0
1.900551065E1,2.670601606E-1,1.145761013E0,1.541163445E0
1.901544165E1,8.476040959E-1,1.009147644E0,1.516681671E0
1.902549765E1,1.536329269E0,6.983466148E-1,1.609827042E0
1.903533265E1,2.074841976E0,4.050822258E-1,1.893810272E0
1.904544165E1,2.255131721E0,2.074437141E-1,2.182667732E0
1.905566065E1,2.205004930E0,-9.498596191E-3,2.391167641E0
1.906534665E1,1.944085598E0,-3.320560455E-1,2.421710968E0
1.907610165E1,1.513404012E0,-7.646379471E-1,2.072461128E0
1.908545565E1,1.000382304E0,-1.140546560E0,1.603496552E0
1.909542665E1,4.885055721E-1,-1.337255716E0,1.183526993E0
1.910533265E1,8.854483813E-2,-1.485902786E0,8.236560822E-1
1.911537065E1,-1.788758337E-1,-1.649302721E0,5.181646347E-1
1.912643565E1,-3.765177727E-1,-1.744886398E0,9.339046478E-2
1.913534265E1,-4.824398160E-1,-1.748763561E0,-4.215846062E-1
1.914691965E1,-4.324585199E-1,-1.738910675E0,-8.803138733E-1
1.915555765E1,-8.804756403E-2,-1.623713493E0,-1.228515625E0
1.916544465E1,3.730037212E-1,-1.626847029E0,-1.385463238E0
1.917545465E1,8.555462956E-1,-1.662279129E0,-1.395209312E0
1.918533165E1,1.218839645E0,-1.680770397E0,-1.107155800E0
1.919561365E1,1.420769930E0,-1.674736023E0,-6.963429451E-1
1.920532165E1,1.466217518E0,-1.670398235E0,-2.590055466E-1
1.921561165E1,1.265646338E0,-1.696780920E0,2.327575684E-1
1.922534265E1,8.034560680E-1,-1.556448936E0,6.484661102E-1
1.923532465E1,2.674345374E-1,-1.401013613E0,8.481550217E-1
1.924577365E1,-1.167496294E-1,-1.380161524E0,8.203401566E-1
1.925537965E1,-3.403415382E-1,-1.414883375E0,4.092044830E-1
1.926573165E1,-4.054683745E-1,-1.389109135E0,-1.687431335E-1
1.927541565E1,-4.018896222E-1,-1.224535465E0,-7.162556648E-1
1.928536065E1,-3.795628250E-1,-1.018048048E0,-1.293349266E0
1.929655965E1,-3.198579550E-1,-8.114051819E-1,-1.822827339E0
1.930535365E1,-2.073306441E-1,-6.650199890E-1,-2.323598385E0
1.931540165E1,-5.477830768E-2,-5.296635628E-1,-2.660276413E0
1.932539865E1,1.108830869E-1,-3.557195663E-1,-2.713906765E0
1.933534665E1,2.249339521E-1,-2.119956017E-1,-2.640912056E0
1.934596465E1,4.128209352E-1,-7.412862778E-2,-2.034274101E0
1.935531965E1,4.228444695E-1,-5.984115601E-2,-2.042368889E0
1.936545965E1,3.551074266E-1,-2.402973175E-2,-1.015192986E0
1.937537765E1,4.752701521E-2,1.104259491E-2,-5.231328011E-1
1.938533365E1,2.278131247E-2,1.103477478E-1,-8.330726624E-2
1.939578665E1,1.947527677E-1,2.401185036E-1,2.845859528E-1
1.940529165E1,4.818823338E-1,3.917083740E-1,5.736923218E-1
1.941541865E1,8.451603651E-1,5.096521378E-1,7.135143280E-1
1.942581865E1,1.211895823E0,6.066608429E-1,7.665576935E-1
1.943535165E1,1.426757336E0,6.971368790E-1,6.971187592E-1
1.944543965E1,1.474386334E0,7.277731895E-1,5.446100235E-1
1.945530165E1,1.335946321E0,7.662787437E-1,4.620666504E-1
1.946542965E1,1.132161498E0,8.490948677E-1,2.063283920E-1
1.947542465E1,9.801921844E-1,7.758584023E-1,-2.686500549E-3
1.948544665E1,8.403561711E-1,7.328906059E-1,-1.843452454E-1
1.949585765E1,7.852093577E-1,6.882562637E-1,-3.037681580E-1
1.950560765E1,7.514866590E-1,6.059279442E-1,-3.553638458E-1
1.951595865E1,7.501562834E-1,5.787310600E-1,-8.052825928E-2
1.952544165E1,7.394213676E-1,5.243859291E-1,1.897706985E-1
1.953541865E1,4.623519778E-1,2.844009399E-1,5.120124817E-1
1.954932565E1,2.013575733E-1,1.599922180E-1,8.645696640E-1
1.956541965E1,-9.558629990E-2,1.699037552E-1,1.418426514E0
1.957542265E1,-2.700020671E-1,2.776069641E-1,1.772087097E0
1.958534665E1,-4.050441384E-1,4.782752991E-1,2.026228905E0
1.959587765E1,-5.389665961E-1,7.231888771E-1,2.188523293E0
1.960533565E1,-6.606791019E-1,9.508109093E-1,2.204474449E0
1.961571265E1,-7.649340034E-1,1.156820774E0,2.125413895E0
1.962544865E1,-7.766821384E-1,1.307621002E0,1.956736565E0
1.963537065E1,-6.745489836E-1,1.376112461E0,1.800181389E0
1.964644865E1,-4.793098271E-1,1.274616718E0,1.862238884E0
1.965548965E1,-2.189338505E-1,1.036998272E0,2.118425369E0
1.966639265E1,9.467822313E-2,5.889849663E-1,2.367183685E0
1.967543665E1,3.332759738E-1,3.886365891E-2,2.498132706E0
1.968536965E1,4.083398581E-1,-5.367431641E-1,2.655336380E0
1.969564765E1,7.062643766E-3,-1.011105537E0,2.799534798E0
1.970669065E1,-6.180602908E-1,-1.436219454E0,2.620408058E0
1.971539465E1,-1.194726229E0,-1.843946934E0,2.261013031E0
1.972535265E1,-1.657889366E0,-2.001461267E0,1.844726562E0
1.973543565E1,-1.969793320E0,-1.918987989E0,1.528087616E0
1.974545165E1,-2.078476429E0,-1.823683023E0,1.248041153E0
1.975794665E1,-1.986270308E0,-1.714806557E0,7.897911072E-1
1.977554765E1,-1.471014142E0,-1.631654978E0,-3.181991577E-1
1.978531265E1,-1.216449618E0,-1.679512501E0,-7.954764366E-1
1.979539165E1,-9.002801180E-1,-1.753483295E0,-1.040249348E0
1.980533965E1,-5.984748602E-1,-1.825792551E0,-9.817390442E-1
1.981533165E1,-2.707251310E-1,-1.917479515E0,-8.092613220E-1
1.983081165E1,2.089049220E-1,-2.128388166E0,-1.506986618E-1
1.984537165E1,2.159956098E-1,-2.209344625E0,-9.059906006E-5
1.985542565E1,1.432211697E-1,-2.241199255E0,4.497432709E-2
1.986564965E1,-9.340953082E-3,-2.187688589E0,-3.641223907E-2
1.987536265E1,-1.968958974E-1,-2.065901995E0,-2.868404388E-1
1.988532765E1,-3.326325715E-1,-1.974096298E0,-5.233368874E-1
1.989854365E1,-5.139227509E-1,-1.607842922E0,-1.270430088E0
1.991536065E1,-3.971636295E-1,-1.351141214E0,-1.726331711E0
1.992547365E1,-3.635073006E-1,-1.141694069E0,-1.790943623E0
1.993534965E1,-2.212174237E-1,-1.058969975E0,-1.788876534E0
1.994555965E1,-8.679389954E-2,-9.849662781E-1,-1.767997742E0
1.995553665E1,7.554696500E-2,-8.783788681E-1,-1.711926460E0
1.996570065E1,1.663251221E-1,-7.635278702E-1,-1.596496582E0
1.997562265E1,1.394692659E-1,-6.500158310E-1,-1.381469250E0
1.998644565E1,-3.160627186E-2,-5.416378975E-1,-1.184522152E0
1.999545665E1,-2.301177979E-1,-4.274330139E-1,-1.068928242E0
2.000588265E1,-3.997189999E-1,-3.376731873E-1,-9.654755592E-1
2.001552865E1,-5.363045335E-1,-2.430968285E-1,-9.448080063E-1
2.002577865E1,-5.944403410E-1,-1.628799438E-1,-9.697828293E-1
2.003560165E1,-6.277936101E-1,-7.026767731E-2,-9.604454041E-1
2.004540165E1,-6.124421358E-1,3.257322311E-2,-9.260702133E-1
2.005605865E1,-5.181730986E-1,1.105537415E-1,-8.822689056E-1
2.006537765E1,-4.606269300E-1,1.397156715E-1,-8.460950851E-1
2.007538565E1,-4.272412360E-1,1.633324623E-1,-5.909910202E-1
2.008535465E1,-4.300263524E-1,1.605558395E-1,-3.068466187E-1
2.009535065E1,-4.305385053E-1,1.323046684E-1,3.071498871E-2
2.010537965E1,-4.499477148E-1,9.797763824E-2,4.051246643E-1
2.011539165E1,-4.776504338E-1,9.478044510E-2,7.540616989E-1
2.012575965E1,-5.330734253E-1,6.516313553E-2,1.104607582E0
2.013532265E1,-4.249303043E-1,1.105437279E-1,1.337845802E0
2.014635065E1,-3.250624537E-1,1.763553619E-1,1.493240356E0
2.015538765E1,-2.638172507E-1,1.979985237E-1,1.676134109E0
2.016536265E1,-2.522369921E-1,2.943582535E-1,1.813183784E0
2.017586065E1,-3.077640533E-1,4.276661873E-1,1.868021965E0
2.018549065E1,-3.584958911E-1,6.216979027E-1,1.895428658E0
2.019555565E1,-4.037074745E-1,8.226718903E-1,1.773340225E0
2.020544865E1,-3.998394310E-1,9.736952782E-1,1.585398674E0
2.021536165E1,-3.284952044E-1,1.045904160E0,1.473990440E0
2.022575765E1,-1.522400677E-1,1.102066517E0,1.421703339E0
2.023532065E1,1.631505936E-1,1.115910053E0,1.460611343E0
2.024561065E1,7.295653224E-1,9.740562439E-1,1.576131821E0
2.025547565E1,1.327289820E0,7.316098213E-1,1.955569267E0
2.026541965E1,1.748164058E0,5.222187042E-1,2.533586502E0
2.027537265E1,1.870856404E0,4.337468147E-1,3.012464523E0
2.028537165E1,1.978049397E0,2.481937408E-1,3.250861168E0
2.029564065E1,2.058722258E0,-1.161189079E-1,3.465493202E0
2.030531865E1,1.945871711E0,-4.753532410E-1,3.400715828E0
2.031539965E1,1.609619260E0,-8.386306763E-1,2.961769104E0
2.032616965E1,1.148650527E0,-1.247579575E0,2.354520798E0
2.033550865E1,7.141891718E-1,-1.561100245E0,1.880468369E0
2.034562365E1,2.823715806E-1,-1.767120600E0,1.414379120E0
2.035533765E1,-3.938129544E-2,-1.869803190E0,9.596099854E-1
2.036562765E1,-2.284404039E-1,-1.870273590E0,5.559282303E-1
2.037545665E1,-2.189454138E-1,-1.940409899E0,8.818054199E-2
2.038564365E1,5.691498518E-3,-2.051910639E0,-4.585151672E-1
2.039813865E1,7.728811502E-1,-2.071573973E0,-1.019646168E0
2.041539965E1,1.177328229E0,-2.038970470E0,-9.939465523E-1
2.042551465E1,1.477203250E0,-2.011991739E0,-7.584438324E-1
2.043550465E1,1.616134167E0,-1.948413849E0,-5.778312683E-2
2.045073365E1,1.493282914E0,-1.764734507E0,3.991508484E-2
2.046565165E1,9.799300432E-1,-1.566711426E0,4.589672089E-1
2.048307265E1,6.781010628E-1,-1.455549717E0,3.705272675E-1
2.049544365E1,3.359370232E-1,-1.529642344E0,-1.624221802E-1
2.050607965E1,3.357666135E-1,-1.458598375E0,-6.707706451E-1
2.051538165E1,4.529838860E-1,-1.305174112E0,-1.184868336E0
2.052557965E1,5.865048766E-1,-1.091786623E0,-1.544519901E0
2.053598665E1,6.261112094E-1,-8.685915470E-1,-1.897416115E0
2.054540765E1,6.237819195E-1,-6.914563179E-1,-2.208357334E0
2.055542665E1,6.617115140E-1,-5.676031113E-1,-2.497085094E0
2.056559665E1,5.932081938E-1,-4.307231903E-1,-2.610172272E0
2.057539865E1,4.662335217E-1,-2.881002426E-1,-2.501666069E0
2.058535465E1,4.320661426E-1,-2.052264214E-1,-2.351665020E0
2.059537565E1,5.308736563E-1,-1.742610931E-1,-1.974825859E0
2.060556665E1,6.759325266E-1,-1.146345139E-1,-1.705429554E0
2.061544065E1,8.381947279E-1,-7.839107513E-2,-1.314282417E0
2.062557565E1,9.327157140E-1,-2.775430679E-2,-9.377202988E-1
2.063586765E1,9.453190565E-1,1.954555511E-2,-6.503443718E-1
2.064555665E1,8.897234201E-1,9.310960770E-2,-3.380308151E-1
2.065540765E1,8.216179609E-1,1.925668716E-1,-1.502285004E-1
2.066540865E1,8.593934774E-1,2.765064240E-1,-3.223419189E-4
2.067544765E1,8.494473696E-1,4.192476273E-1,1.318960190E-1
2.068568265E1,8.127005696E-1,5.904989243E-1,2.699575424E-1
2.069539965E1,8.484874368E-1,6.747369766E-1,4.400882721E-1
2.070542265E1,9.085459709E-1,6.929860115E-1,6.492795944E-1
2.071535465E1,8.996227980E-1,7.256751060E-1,8.672008514E-1
2.072571365E1,8.141518831E-1,7.284564972E-1,1.067181587E0
2.073594465E1,6.916754842E-1,6.868596077E-1,1.300799370E0
2.074538165E1,5.355777144E-1,6.552338600E-1,1.564085007E0
2.075546965E1,4.039011598E-1,6.365799904E-1,1.787182808E0
2.076534565E1,2.523679435E-1,6.586961746E-1,1.956833839E0
