"Time (s)","Linear Acceleration x (m/s^2)","Linear Acceleration y (m/s^2)","Linear Acceleration z (m/s^2)"
1.460621100E-2,-1.016719341E-1,-1.962184906E-1,-2.235980034E-1
3.669121100E-2,-1.064603329E-1,-1.878390312E-1,-2.678904533E-1
5.233821100E-2,-7.294154167E-2,-2.057952881E-1,-1.457862854E-1
6.613521100E-2,-3.438043594E-2,-2.494344711E-1,-1.143836975E-2
7.706121100E-2,-1.183316708E-1,-1.656832695E-1,3.387498856E-2
8.754821100E-2,-5.363130569E-2,-8.961153030E-2,2.002849579E-1
9.775921100E-2,1.369094849E-1,-1.609635353E-1,4.629325867E-1
1.079502110E-1,5.095624924E-2,-6.432867050E-2,3.297200203E-1
1.190022110E-1,-9.510517120E-3,2.310991287E-2,-1.697731018E-2
1.284942110E-1,7.824897766E-3,-3.296422958E-2,-4.148130417E-1
1.382782110E-1,-4.841470718E-2,-3.144073486E-2,-5.512790680E-1
1.481347110E-1,7.648253441E-2,-1.845035553E-1,-2.074713707E-1
1.583554610E-1,1.024746895E-1,-3.103370667E-1,2.819776535E-2
1.684203360E-1,-4.429221153E-2,-2.065134048E-1,2.372322083E-1
1.785127730E-1,-1.725533009E-1,-1.022338867E-2,3.079962730E-1
1.893434920E-1,-1.099686623E-1,3.077840805E-2,-2.768621445E-1
1.987698510E-1,7.798385620E-2,-1.908969879E-2,-2.557530403E-1
2.085155310E-1,-1.609816551E-1,-2.132806778E-1,-7.206501961E-1
2.183263710E-1,-3.309776783E-1,2.145671844E-2,-6.799702644E-1
2.283602910E-1,-2.041904926E-1,-2.580461502E-1,-6.287522316E-1
2.383637510E-1,-1.962502003E-1,-3.815088272E-1,-3.805308342E-1
2.484969810E-1,-1.345152855E-1,-4.585719109E-1,-5.006790161E-2
2.583515960E-1,-7.845425606E-2,-4.421257973E-1,5.600762367E-1
2.682569030E-1,-8.967614174E-2,-3.979511261E-1,9.813761711E-1
2.782085570E-1,-9.476518631E-2,-2.801818848E-1,1.236433983E0
2.881918840E-1,-9.216976166E-2,-1.275229454E-1,8.604359627E-1
2.983485470E-1,-1.577677727E-1,-9.215831757E-2,-4.865145683E-1
3.082353790E-1,-4.639356136E-1,-1.816406250E-1,-1.861032963E0
3.181502950E-1,-8.267498016E-2,-9.161109924E-1,-1.631377697E0
3.282232530E-1,-1.935791969E-2,-7.881770134E-1,-8.169965744E-1
3.382202320E-1,-2.510299683E-1,2.330455780E-1,-2.066516876E-2
3.484847210E-1,-3.648808002E-1,7.979111671E-1,8.213510513E-1
3.589894660E-1,-3.461685181E-1,7.053742409E-1,1.459626198E0
3.687088380E-1,-3.376626968E-2,4.399795532E-1,2.048814774E0
3.785985240E-1,-1.972579956E-2,3.778290749E-1,1.065543175E0
3.883988670E-1,-2.811769247E-1,4.738917351E-1,-3.839712143E-1
3.984900390E-1,-8.509341478E-1,1.040178299E0,-4.296336174E-1
4.096491250E-1,-1.636154175E0,1.239829540E0,-2.612056732E-1
4.188006680E-1,-1.076696992E0,1.007593155E0,2.261886597E-1
4.286879390E-1,-2.126553059E-1,6.499810219E-1,-1.691951752E-1
4.384385750E-1,9.587597847E-2,4.435081482E-1,-1.041269779E0
4.483508930E-1,7.450342178E-3,5.837011337E-2,-1.576856613E0
4.581415520E-1,-3.233256340E-1,-3.262887001E-1,-1.153640747E0
4.681358810E-1,-9.210096598E-1,-4.416525364E-1,-2.351922989E-1
4.783170460E-1,-1.439074993E0,-3.649070263E-1,7.902574539E-1
4.881961280E-1,-1.503420472E0,-1.450157166E-1,1.524639130E0
4.991971690E-1,-1.448281884E0,-1.260805130E-1,1.585349083E0
5.086591900E-1,-7.966837287E-1,-2.292542458E-1,1.058540344E0
5.183057000E-1,-4.010556936E-1,-1.084504128E-1,2.418270111E-1
5.281444550E-1,-4.929050207E-1,1.718649864E-1,-6.339311600E-1
5.381528330E-1,-6.545190811E-1,1.635518074E-1,-1.454415798E0
5.480990220E-1,-9.047104716E-1,4.441404343E-2,-2.190730095E0
5.582501160E-1,-1.083058119E0,1.782317162E-1,-1.397708893E0
5.681271630E-1,-8.828077912E-1,1.785650253E-1,-2.499523163E-1
5.781276870E-1,-4.230100513E-1,2.955074310E-1,2.747135162E-1
5.880679490E-1,1.340512037E-1,4.786288738E-1,4.286394119E-1
5.981440800E-1,5.479232073E-1,6.280725002E-1,2.125387192E-1
6.087381450E-1,8.258354664E-1,6.763792038E-1,-1.645555496E-1
6.184651780E-1,9.339758158E-1,5.642168522E-1,-8.478336334E-1
6.282971940E-1,8.751213551E-3,-4.480066299E-1,-1.251499653E0
6.382437020E-1,-4.081003368E-1,-1.391523838E0,-4.527845383E-1
6.482974560E-1,-4.382891059E-1,5.492336750E-1,1.165833473E0
6.588943330E-1,-4.378275275E-1,1.611473322E0,2.131028175E0
6.685122720E-1,-4.110113084E-1,1.544900894E0,2.270251274E0
6.782707410E-1,-1.508893818E-1,6.329793930E-1,2.052191734E0
6.884124760E-1,6.221624017E-1,-3.271186352E-1,6.949663162E-1
6.983348430E-1,7.567806244E-1,2.369730473E-1,-2.520856857E-1
7.111675270E-1,4.366921186E-1,5.335803032E-1,-6.943902969E-1
7.280572110E-1,4.366921186E-1,5.335803032E-1,-6.943902969E-1
7.379292110E-1,-6.539949030E-2,6.152424812E-1,-1.060457230E0
7.492352110E-1,-2.625076771E-1,8.952853680E-1,-9.911847115E-1
7.581112110E-1,-2.568742633E-1,1.117924213E0,-8.099632263E-1
7.681012110E-1,1.620723605E-1,9.686508179E-1,-1.845388412E-1
7.780462110E-1,8.039454818E-1,6.780698299E-1,3.399353027E-1
7.889522110E-1,1.459544659E0,5.051681995E-1,1.019709587E0
7.981402110E-1,2.227337122E0,1.489250660E-1,1.461973190E0
8.080242110E-1,2.703534603E0,1.113207340E-1,1.483887672E0
8.201212110E-1,1.551960826E0,6.929709911E-1,5.893735886E-1
8.332547110E-1,4.070515633E-1,1.445534229E-1,-9.254388809E-1
8.479332110E-1,3.705057800E-1,1.409654617E-1,-1.106722832E0
8.586862110E-1,2.905541658E-2,-1.544997692E-1,-8.618955612E-1
8.727682110E-1,3.157353401E-2,2.078573704E-1,8.553695679E-2
8.884182110E-1,-2.603046894E0,1.685252190E0,1.666109085E0
8.980022110E-1,-5.603951454E0,3.477298498E0,6.508693695E-1
9.081512110E-1,-2.853703499E0,1.149682999E-1,6.665163040E-1
9.228672110E-1,-4.676565528E-2,-2.110163450E0,1.236778259E0
9.383952110E-1,-1.194923222E-1,-1.276009798E0,2.909880638E0
9.480912110E-1,-1.851160526E-1,-9.415135384E-1,1.629343987E0
9.584012110E-1,-2.429252863E-2,-8.465323448E-1,1.111666679E0
9.684572110E-1,-4.515118301E-1,-5.945620537E-1,1.554117203E0
9.780042110E-1,-1.318034291E0,-5.225212574E-1,9.591693878E-1
9.881082110E-1,-2.564396620E0,-9.878370762E-1,6.916007996E-1
9.990952110E-1,-3.034434795E0,-1.344411135E0,3.252773285E-1
1.008031211E0,-1.467543125E0,-1.576433420E0,4.668893814E-1
1.019493211E0,-6.199643612E-1,-1.635844469E0,5.837907791E-1
1.028080211E0,-7.280691862E-1,-1.704618216E0,4.014196396E-1
1.038276211E0,-1.390680671E0,-2.126623154E0,9.891510010E-2
1.048671211E0,-1.544476748E0,-2.990797997E0,-2.536754608E-1
1.058137211E0,-1.553050995E0,-2.206107616E0,1.176118851E-1
1.074233211E0,-2.499212265E0,-9.662590027E-1,-1.630525589E0
1.088008211E0,-2.181779385E0,-1.657652617E0,-1.844075680E0
1.097995211E0,-1.720055938E0,-1.814183950E0,-2.064470768E0
1.108058211E0,-2.050981522E0,-1.545421362E0,-2.598973751E0
1.118198211E0,-1.853728294E0,-1.550512791E0,-2.170669556E0
1.128105211E0,-1.992145061E0,-1.587890625E0,-1.295022488E0
1.138189211E0,-1.636034489E0,-2.043173552E0,1.141090393E0
1.148005211E0,-1.815422535E0,-2.153530836E0,1.801962852E0
1.158199211E0,-1.889523506E0,-2.109655142E0,2.732396126E0
1.168639211E0,-1.772626877E0,-2.202895880E0,3.163713455E0
1.178091211E0,-2.330280304E0,-1.955963135E0,2.572473526E0
1.189160211E0,-2.468786001E0,-1.722328186E0,1.427228928E0
1.199523211E0,-2.136315584E0,-1.686333418E0,1.057555199E0
1.208952211E0,-1.778537273E0,-1.806293726E0,6.779861450E-1
1.218004211E0,-1.793137908E0,-1.844667673E0,3.753423691E-1
1.228793211E0,-1.944963813E0,-1.699612856E0,3.807945251E-1
1.238051211E0,-2.574518204E0,-1.478426218E0,3.637952805E-1
1.248472211E0,-3.023277283E0,-1.637484550E0,3.700294495E-1
1.257997211E0,-1.938971877E0,-8.341050148E-1,-5.745649338E-1
1.268017211E0,-1.178325057E0,-2.092654705E-1,-1.016715527E0
1.277965211E0,-5.334534645E-1,-5.184712410E-1,-1.775203705E0
1.288050211E0,-3.677973747E-1,-8.668782711E-1,-1.844954491E0
1.297955211E0,-7.641048431E-1,-7.089109421E-1,-1.542003632E0
1.308536211E0,-1.584001064E0,-3.447813988E-1,-1.513972282E0
1.318011211E0,-2.377826214E0,-6.052875519E-2,-1.530530930E0
1.328036211E0,-2.270433664E0,-5.180072784E-2,-1.223783970E0
1.338314211E0,-1.709665418E0,-2.922883034E-1,-5.773801804E-1
1.348337211E0,-1.604855657E0,-1.604883671E-1,2.471609116E-1
1.358109211E0,-1.391271949E0,-2.590632439E-2,9.390830994E-1
1.368375211E0,6.136288643E-1,-6.258406639E-1,1.346499443E0
1.378138211E0,4.867386818E-1,-6.068806648E-1,1.373834610E0
1.387982211E0,1.469404459E0,3.183073997E-1,1.582012177E-1
1.398215211E0,1.418762922E0,1.825110912E-1,-9.148502350E-2
1.409840211E0,1.152336597E0,1.321308613E-1,-1.996555328E-1
1.418129211E0,6.867094040E-1,2.902486324E-1,-1.507892609E-1
1.427950211E0,1.308844090E-1,4.627406597E-1,2.135257721E-1
1.437959211E0,-2.455079556E-1,3.871273994E-1,5.720567703E-1
1.448057211E0,-5.515544415E-1,2.507998943E-1,9.230136871E-1
1.458410211E0,-1.120234489E0,3.931035995E-1,1.652314186E0
1.468036211E0,-1.193268538E0,3.981287479E-1,2.134599686E0
1.478112211E0,-7.084743977E-1,2.555980682E-1,2.288591385E0
1.488105211E0,-1.538572311E-1,4.021563530E-1,1.945844650E0
1.499710211E0,-1.191987991E-1,9.760346413E-1,8.458709717E-1
1.507973211E0,-1.824710369E-1,1.049189091E0,2.969117165E-1
1.518319211E0,-1.866436005E-2,7.712326050E-1,6.348681450E-1
1.528439211E0,-4.455146790E-1,1.145284653E0,8.145031929E-1
1.538307211E0,-5.971529484E-1,1.417892456E0,5.569634438E-1
1.548618211E0,-1.514759064E-1,1.418846607E0,7.850451469E-1
1.558608211E0,3.756909370E-1,1.662699223E0,1.891779423E0
1.568027211E0,9.581480026E-1,1.628405094E0,3.512395382E0
1.578712211E0,1.723952293E0,1.244795799E0,4.544534206E0
1.588399211E0,2.131499767E0,1.131285667E0,3.536158085E0
1.598102211E0,1.804034710E0,1.383077621E0,3.524245262E0
1.608243211E0,1.617569447E0,1.154155254E0,2.265846729E0
1.619622211E0,1.447800636E0,8.554916382E-1,1.354642868E0
1.628031211E0,1.441918373E0,6.801848412E-1,1.380001545E0
1.638252211E0,1.261319160E0,9.982109070E-2,1.205349922E0
1.648071211E0,7.439713478E-1,-6.049959660E-1,1.410885334E0
1.658073211E0,5.109262466E-2,-1.274679899E0,1.767224789E0
1.668400211E0,-1.116818190E0,-1.891282558E0,1.726333141E0
1.678132211E0,-2.626494884E0,-2.579341888E0,1.673779964E0
1.688019211E0,-1.561111450E0,-1.552221775E0,9.538435936E-1
1.698521211E0,-3.453090191E-1,-7.364444733E-1,2.166057110E0
1.708337211E0,6.139831543E-1,-1.462384224E0,1.035183430E0
1.718405211E0,6.197514534E-1,-2.424143314E0,-4.969596863E-2
1.727962211E0,4.117770195E-1,-2.679611206E0,-1.207554340E0
1.738552211E0,1.167564392E-1,-2.279191017E0,-2.261117458E0
1.748229211E0,-8.631420135E-2,-1.833015919E0,-2.804299355E0
1.758085211E0,-4.550714493E-1,-1.593774319E0,-3.155083656E0
1.769463211E0,-7.060348988E-1,-1.562896252E0,-3.284758568E0
1.778148211E0,-7.381701469E-2,-2.506688595E0,-3.136597633E0
1.788018211E0,2.360651493E-1,-2.682542562E0,-2.675024033E0
1.797981211E0,5.574045181E-1,-2.576253414E0,-1.862078667E0
1.808067211E0,7.925710678E-1,-2.723159313E0,-1.083975792E0
1.818203211E0,6.719956398E-1,-3.032297134E0,-7.584004402E-1
1.828392211E0,3.298997879E-1,-3.156848192E0,-3.611631393E-1
1.838209211E0,-4.742488861E-1,-2.507100105E0,-4.281120300E-1
1.848218211E0,-9.219024181E-1,-2.478100300E0,-5.177340508E-1
1.858500211E0,-1.004606247E0,-2.297981739E0,-4.602894783E-1
1.869217211E0,-1.206963301E0,-2.109328747E0,-1.063958168E0
1.878086211E0,-1.125834227E0,-2.073400021E0,-1.109758377E0
1.887998211E0,-1.302881479E0,-1.574117899E0,-1.502261639E0
1.898275211E0,-1.552330613E0,-1.230464697E0,-2.220472336E0
1.908149211E0,-1.360889196E0,-8.757221699E-1,-2.507429600E0
1.918160211E0,-1.481906176E0,-2.591800690E-2,-1.812012672E0
1.929099211E0,-1.540307879E0,6.383898258E-1,-2.107246876E0
1.940641211E0,-1.214704990E0,4.911947250E-1,-2.154728413E0
1.957999211E0,-1.417628169E0,6.514689922E-1,-2.041590691E0
1.968169211E0,-1.671565771E0,4.609405994E-1,-2.153072834E0
1.978111211E0,-1.469331980E0,3.821520805E-1,-1.677903175E0
1.988721211E0,-8.515008688E-1,2.452166080E-1,-1.010507584E0
1.998038211E0,1.173813343E-1,1.007812023E-1,-6.488323212E-1
2.009061211E0,7.799527645E-1,6.272506714E-2,-6.231117249E-2
2.018223211E0,9.428613186E-1,1.772840023E-1,8.941440582E-1
2.028575211E0,9.365370274E-1,5.702681541E-1,1.894892693E0
2.038310211E0,4.616618156E-1,4.312641621E-1,2.285422325E0
2.048076211E0,-5.075740814E-2,2.907390594E-1,2.091070175E0
2.058271211E0,-5.570487976E-1,6.172699928E-1,2.274193764E0
2.068036211E0,-1.033304930E0,1.194774389E0,1.773185730E0
2.078021211E0,-7.122528553E-1,8.744626045E-1,-9.883308411E-2
2.088397211E0,7.511855364E-1,1.930699348E-1,-8.348102570E-1
2.098135211E0,1.440032959E0,7.466852665E-1,2.770376205E-1
2.108034211E0,1.794137836E0,3.345625401E-1,8.729572296E-1
2.118372211E0,1.433061361E0,8.538413048E-2,1.486974716E0
2.128169211E0,6.378145218E-1,1.963415146E-1,2.241619110E0
2.137995211E0,1.197037578E0,-1.107248187E0,2.500217438E0
2.148420211E0,1.372555375E0,-1.397712827E0,3.254719734E0
2.158460211E0,1.260709405E0,-7.429866791E-1,3.586448669E0
2.168167211E0,1.320892572E0,-4.037439823E-1,3.834482193E0
2.178119211E0,1.403990149E0,-3.645906448E-1,4.062460899E0
2.188232211E0,1.353251934E0,-1.005773544E-1,4.045471191E0
2.198357211E0,1.655052185E0,-2.247691154E-1,3.254365921E0
2.208505211E0,1.688913703E0,-6.168165207E-1,2.009418488E0
2.218277211E0,1.073134661E0,6.097359657E-1,1.544929504E0
2.228414211E0,1.253442764E-1,2.295549154E0,1.158272743E0
2.238093211E0,-1.496690512E0,4.108757973E0,5.093917847E-1
2.248008211E0,-2.372660637E-1,1.333137989E0,1.147238731E0
2.259464211E0,7.675924301E-1,-8.342382908E-1,3.167716026E0
2.268550211E0,7.084550858E-1,-1.096341372E0,5.404124260E0
2.278368211E0,3.906207085E-1,-2.085392237E0,6.388995171E0
2.288249211E0,7.306766510E-1,-3.541138172E0,5.217617512E0
2.297995211E0,8.467440605E-1,-3.138956070E0,4.760292053E0
2.308257211E0,3.360795975E-1,-2.891052485E0,3.837422848E0
2.318227211E0,2.315006256E-1,-2.586958408E0,2.277177334E0
2.328049211E0,-2.106399536E-1,-1.959030390E0,1.319645882E0
2.338154211E0,-4.051861763E-1,-1.776477337E0,6.133656502E-1
2.347947211E0,-2.631726265E-1,-1.840024710E0,-2.236003876E-1
2.358613211E0,-6.929459572E-1,-1.888264418E0,-5.813322067E-1
2.368158211E0,-1.715638638E0,-1.762591839E0,-1.047412872E0
2.378173211E0,-2.528468132E0,-1.696937323E0,-2.228872061E0
2.388067211E0,-3.210463285E0,-1.708195210E0,-2.980061054E0
2.397981211E0,-3.540994406E0,-1.590754032E0,-3.579227924E0
2.408042211E0,-3.653528690E0,-1.485040665E0,-3.607564211E0
2.418431211E0,-3.422022104E0,-1.670406342E0,-3.150349617E0
2.428160211E0,-2.651217461E0,-2.090681553E0,-2.667943001E0
2.438331211E0,-1.990712166E0,-2.169298887E0,-1.708282709E0
2.448491211E0,-1.338327408E0,-2.037516117E0,-3.364710808E-1
2.458157211E0,-1.178964615E0,-1.827297449E0,-1.193819046E-1
2.468077211E0,-1.516140461E0,-1.682445288E0,-2.266964912E-1
2.478264211E0,-2.038692474E0,-1.953581214E0,1.021833420E-1
2.488486211E0,-2.746586323E0,-2.097784281E0,2.479963303E-1
2.498604211E0,-3.425558567E0,-2.150521278E0,6.002655029E-1
2.507961211E0,-3.815154314E0,-2.461742401E0,9.311504364E-1
2.518070211E0,-3.673049212E0,-2.608274698E0,1.242364883E0
2.528558211E0,-3.131293774E0,-2.551700115E0,1.538218498E0
2.538542211E0,-2.668350220E0,-2.598041058E0,2.395490646E0
2.548097211E0,-2.123932838E0,-2.689630270E0,3.387994766E0
2.560125211E0,-1.818473816E0,-2.864942074E0,4.330428123E0
2.568342211E0,-2.365157127E0,-3.291422367E0,5.545219898E0
2.578063211E0,-4.600045681E0,-4.869016171E0,4.111150265E0
2.588083211E0,-3.014823914E0,-2.801276684E0,2.309178352E0
2.598184211E0,-2.442830086E0,-9.825870991E-1,2.316091537E0
2.608966211E0,-2.154117107E0,-5.155339837E-1,3.964409828E-1
2.618035211E0,-1.239033699E0,-4.878396392E-1,-9.845333099E-1
2.628019211E0,1.127862930E-1,-1.973822415E-1,-1.124745131E0
2.638743211E0,2.248840332E0,1.425428391E-1,2.382500648E0
2.648063211E0,9.896955490E-1,-7.440415025E-1,3.081830978E0
2.658092211E0,2.812633514E-1,-2.359308481E0,1.477602005E0
2.668372211E0,-4.291219711E-1,-1.896940708E0,1.530340195E0
2.679852211E0,-2.079429626E-1,-1.281494379E0,8.084921837E-1
2.688205211E0,2.055034637E-1,-1.242823601E0,8.014917374E-1
2.698368211E0,1.010270119E0,-1.684124708E0,6.157341003E-1
2.708022211E0,1.648205757E0,-1.284995794E0,3.704195023E-1
2.718150211E0,1.611719131E0,-2.193022966E-1,8.022594452E-2
2.730706211E0,1.539519310E0,2.551766634E-1,-5.313887596E-1
2.748375211E0,1.585145950E0,-3.705561161E-2,-1.235910892E0
2.758210211E0,1.675658226E0,-6.074206829E-1,-1.360614538E0
2.768038211E0,1.288580894E0,-3.417923450E-1,-9.467647076E-1
2.778213211E0,1.127483368E0,3.776687384E-1,-5.106983185E-1
2.788103211E0,8.616037369E-1,6.757543683E-1,9.774589539E-2
2.798353211E0,5.585498810E-1,4.782226086E-1,7.654261589E-1
2.808418211E0,7.500162125E-1,-1.877713203E-1,1.897675514E0
2.818162211E0,9.469089508E-1,-2.517542839E-1,3.100353241E0
2.828057211E0,1.511409760E0,-3.994319439E-1,3.824851990E0
2.838122211E0,2.083064079E0,-5.307961702E-1,3.769714355E0
2.848045211E0,1.800836563E0,-2.465896606E-1,2.918658257E0
2.859801211E0,1.342779160E0,3.235681057E-1,1.991495609E0
2.870591211E0,1.231679916E0,8.323942423E-1,8.987255096E-1
2.883401211E0,2.541764259E0,1.244555593E0,-7.073340416E-1
2.898278211E0,4.165931702E0,1.014625669E0,-7.829482555E-1
2.910714211E0,2.440370560E0,-1.659100771E0,1.794725895E0
2.928067211E0,1.612776756E0,-2.634873390E0,7.190895557E0
2.938257211E0,1.273370743E0,-3.317723274E0,8.112472534E0
2.948192211E0,6.929655075E-1,-3.060566187E0,7.713452339E0
2.960890211E0,-4.756784439E-1,-7.989900112E-1,4.784136295E0
2.978041211E0,-1.750010967E0,1.088871956E-1,2.352931976E0
2.988008211E0,-2.648396492E0,1.109147072E0,-6.696557999E-2
2.997983211E0,-3.833643913E0,1.899524689E0,-4.940309525E-1
3.008342211E0,-3.786015034E0,1.792009711E0,-5.817043781E-1
3.018025211E0,-3.686673641E0,1.250712037E0,-3.668720722E-1
3.028543211E0,-3.264787197E0,9.369237423E-1,3.964531422E-1
3.038122211E0,-2.966437340E0,5.282464027E-1,5.672626495E-1
3.047975211E0,-3.002696514E0,2.824544907E-1,4.618356228E-1
3.058272211E0,-3.007403851E0,3.555147648E-1,2.852904797E-1
3.068011211E0,-3.595808506E0,8.968080282E-1,-2.574770451E-1
3.078048211E0,-4.360247612E0,1.124007225E0,-9.390654564E-1
3.088060211E0,-4.547710419E0,1.497752905E0,-1.717940807E0
3.098046211E0,-4.008450508E0,1.742216825E0,-2.000301600E0
3.107974211E0,-2.925371647E0,1.304569364E0,-1.333287477E0
3.123221211E0,-2.049442768E0,4.926881790E-1,-1.055951834E0
3.137981211E0,-2.007915020E0,-2.178506851E-1,-2.492928505E-2
3.147932211E0,-2.285563469E0,-2.837417126E-1,2.561783791E-2
3.158300211E0,-1.349640369E0,-1.201272011E-1,-3.832633495E-1
3.168117211E0,-1.030375004E0,3.804550171E-1,-1.347002149E0
3.178772211E0,-7.597303391E-1,1.096766472E0,-2.128172874E0
3.188363211E0,7.183599472E-1,1.290837884E0,-2.388463497E0
3.198175211E0,4.638339043E0,3.302781582E-1,-2.009199381E0
3.209622211E0,6.213432312E0,-7.578206062E-2,-1.653153658E0
3.218378211E0,2.779405594E0,1.712818980E0,-2.555604696E0
3.228177211E0,-4.752674103E-1,2.754941225E0,-3.251349926E0
3.238109211E0,-7.125520706E-1,2.417788506E0,-1.816774845E0
3.248066211E0,-1.186320305E0,1.222853303E0,-2.589852810E-1
3.258285211E0,-1.990889072E0,-1.932241917E-1,1.492220640E0
3.268204211E0,-2.711794853E0,-1.035249233E0,3.146828651E0
3.278375211E0,-2.978152752E0,-1.529169202E0,4.067152977E0
3.288006211E0,-2.909692287E0,-1.672204852E0,3.822805166E0
3.298377211E0,-1.487022400E0,-1.848951221E0,2.555387735E0
3.307993211E0,-1.276184082E0,-9.681385756E-1,6.412999630E-1
3.318142211E0,-1.232973099E0,1.489601135E-1,-1.740956306E0
3.328043211E0,-1.288081169E0,9.751423597E-1,-3.255227089E0
3.338157211E0,-8.224515915E-1,1.310160875E0,-2.595722198E0
3.347963211E0,-1.415826797E0,1.278908134E0,-1.315775156E0
3.358385211E0,-1.883506775E-2,2.954603434E-1,-4.254933596E-1
3.367982211E0,1.295371056E0,8.260345459E-2,-5.754717588E-1
3.379222211E0,4.729130745E0,-4.050270319E-1,-1.778479099E0
3.388009211E0,9.152187347E0,-1.389321327E0,-3.137790203E0
3.399637211E0,4.506479263E0,2.350649595E0,-4.258384705E0
3.408032211E0,2.426028252E0,4.144182205E0,-6.411462784E0
3.418311211E0,2.347263336E0,3.606786013E0,-6.331148148E0
3.428433211E0,4.481782913E0,1.259251952E0,-3.712959051E0
3.438289211E0,6.669268608E0,-2.351371050E-1,-4.959832430E-1
3.447937211E0,4.467534065E0,6.443454027E-1,2.072719932E-1
3.458372211E0,2.286484718E0,1.447635651E0,-1.564958096E-1
3.468110211E0,6.556425095E-1,1.366562843E0,9.892501235E-1
3.478060211E0,8.994922638E-1,6.131310463E-1,3.357970715E0
3.488489211E0,2.154429436E0,-5.719856024E-1,4.990824699E0
3.498326211E0,2.738064766E0,-8.298050761E-1,5.724696159E0
3.508347211E0,4.678140640E0,-1.350684881E0,3.159883976E0
3.519864211E0,2.725374222E0,-7.418462634E-1,3.453471661E-1
3.528125211E0,3.194434166E0,-1.632560253E0,7.124487162E-1
3.538617211E0,3.601904869E0,-2.566604853E0,1.049607277E0
3.548564211E0,1.294414520E0,-2.105012894E0,1.207723260E0
3.558033211E0,-1.339144707E0,-1.353433609E0,9.058266878E-1
3.568041211E0,-2.586819172E0,-3.090730906E0,1.291618586E0
3.579756211E0,-3.734028339E0,-3.487106562E0,3.172555685E0
3.588497211E0,-3.876458168E0,-3.612328053E0,4.661008835E0
3.597966211E0,-3.575138092E0,-4.075271130E0,4.925896645E0
3.607920211E0,-4.394624710E0,-2.636437416E0,4.282330036E0
3.618425211E0,-5.989901543E0,-1.213468313E0,3.122500896E0
3.629469211E0,-5.102190971E0,-2.060400963E0,2.726344585E0
3.638444211E0,-8.006963730E-1,-3.744261026E0,2.778748751E0
3.648012211E0,-5.692882538E-1,-2.811388969E0,3.874512196E0
3.659961211E0,6.195106506E-1,-1.532316804E0,2.971196175E0
3.669129211E0,5.258722305E-1,3.272244334E-1,1.879901886E0
3.678518211E0,-1.208536148E0,2.015532732E0,4.117126465E-1
3.688069211E0,1.497774124E-1,2.659273863E0,-4.889087677E-1
3.698142211E0,-3.036308289E-2,3.573287487E0,5.090396404E-1
3.709240211E0,-1.045723915E0,4.252597809E0,3.467488289E-2
3.718681211E0,6.676797867E-1,3.766203880E0,7.296364307E-1
3.728193211E0,3.420644760E0,1.748202085E0,2.246978045E0
3.744402211E0,4.134211540E0,1.605184078E-1,3.217307329E0
3.758124211E0,1.206254005E0,1.242775679E0,2.307909250E0
3.772654211E0,-6.763744354E-2,1.577146530E0,1.112930894E0
3.788338211E0,-3.946952820E-1,1.788863420E0,-7.661194801E-1
3.798008211E0,-3.486108780E-1,1.541045427E0,-1.599413395E0
3.807957211E0,-5.747613907E-1,1.511918664E0,-2.293666363E0
3.824458211E0,-2.369610786E0,2.854682922E0,-2.965837955E0
3.838338211E0,-1.949573517E0,2.651885748E0,-2.450787544E0
3.848589211E0,-4.049921036E-1,5.109429359E-1,1.212630987E0
3.858302211E0,-1.971139908E-1,-1.297049522E0,1.851575375E0
3.868015211E0,-3.326501846E-1,-1.714251041E0,2.215675831E0
3.878273211E0,-6.120367050E-1,-1.328369379E0,1.990813732E0
3.888038211E0,-9.144716263E-1,-9.094991684E-1,2.097408295E0
3.898224211E0,-5.527477264E-1,-6.938257217E-1,1.615603328E0
3.908401211E0,-6.108694077E-1,-2.507238388E-1,1.168870211E0
3.919249211E0,-5.538015366E-1,2.830867767E-1,8.671312332E-1
3.930526211E0,-3.065490723E-2,1.142785788E0,3.157114089E-1
3.948237211E0,-1.215569496E0,9.097311497E-1,2.025163770E-1
3.958077211E0,-2.337463379E0,1.979075789E0,1.173330784E0
3.968387211E0,-2.402322292E0,2.673950434E0,1.557790637E0
3.979754211E0,-2.136268616E0,2.500404596E0,1.605219960E0
3.988808211E0,-2.103282928E0,2.590888023E0,1.626781821E0
3.998352211E0,-1.466242790E0,2.228662968E0,1.657892823E0
4.008062211E0,-3.108005524E-1,1.820235848E0,2.227753878E0
4.018668211E0,1.421411514E0,9.931962490E-1,2.399875164E0
4.028192211E0,2.796879768E0,-2.996726036E-1,2.313683748E0
4.038776211E0,5.574715614E0,-2.114809513E0,1.445543766E0
4.048119211E0,5.662694931E0,-1.940282822E0,1.490740061E0
4.058117211E0,7.296017647E0,-3.280303001E0,3.638789058E-1
4.068057211E0,7.507125854E0,-3.686893940E0,2.585071325E-1
4.078151211E0,7.399861336E0,-4.054470539E0,1.467132568E-1
4.088366211E0,6.384467125E0,-2.966775417E0,1.197071075E0
4.099714211E0,4.755457878E0,-9.071788788E-1,2.287451029E0
4.107948211E0,3.570819855E0,-6.822423935E-1,1.656880617E0
4.118015211E0,2.320181847E0,-1.136384010E0,1.153485060E0
4.128397211E0,8.452968597E-1,-1.877323151E0,1.241785288E0
4.138155211E0,-5.574979782E-1,-2.405640602E0,1.932070494E0
4.150728211E0,-2.501873493E0,-1.552481174E0,3.669045925E0
4.160156211E0,-4.012660980E0,-1.051694870E0,4.256532192E0
4.178113211E0,-6.080392838E0,-4.179167747E-1,2.882566214E0
4.188044211E0,-6.456347466E0,9.557008743E-2,1.265321016E0
4.198236211E0,-6.354920387E0,6.091728210E-1,1.093072891E-1
4.208028211E0,-5.852924347E0,8.278555870E-1,-1.000966191E0
4.218377211E0,-5.004205227E0,7.968554497E-1,-1.800287247E0
4.229195211E0,-3.931860447E0,4.965648651E-1,-1.248044968E0
4.238063211E0,-2.936736584E0,5.736389160E-1,-3.097392321E-1
4.248548211E0,-2.614277840E0,7.694215775E-1,4.098538756E-1
4.257953211E0,-2.215104103E0,7.599744797E-1,6.008452177E-1
4.267998211E0,-1.864705563E0,6.606659889E-1,2.133282423E-1
4.278046211E0,-1.751503468E0,6.785831451E-1,-7.256305218E-2
4.288036211E0,-1.756806374E0,7.131886482E-1,-6.021618843E-2
4.299294211E0,-1.216953754E0,7.121553421E-1,1.296323538E-1
4.308144211E0,-8.022828102E-1,9.458250999E-1,-3.581285477E-3
4.318315211E0,-7.257385254E-1,1.206795216E0,-2.305073738E-1
4.329986211E0,-9.721689224E-1,1.467607021E0,-3.981255293E-1
4.338000211E0,-1.547815800E0,1.947151184E0,-6.111673117E-1
4.348155211E0,-1.967093706E0,2.094382763E0,-3.615103960E-1
4.358731211E0,-2.376732588E0,2.249570847E0,-2.986959219E-1
4.368349211E0,-2.865706921E0,2.432080269E0,-4.310737848E-1
4.378022211E0,-3.209969282E0,2.628000259E0,1.835802794E-1
4.388664211E0,-3.368295670E0,2.803227901E0,5.181881189E-1
4.398514211E0,-3.395126581E0,2.872998238E0,7.277233601E-1
4.408831211E0,-3.224535465E0,2.901144981E0,1.333190918E0
4.418295211E0,-2.945210218E0,2.962222576E0,1.722989321E0
4.428029211E0,-2.383123636E0,2.738327026E0,2.091090202E0
4.440583211E0,-1.863222837E0,2.608274460E0,2.215343714E0
4.453808211E0,-1.589340448E0,2.362045765E0,3.392846823E0
4.467984211E0,-1.651353598E0,2.386191368E0,3.471216679E0
4.478122211E0,-1.410136938E0,2.048987865E0,3.338648319E0
4.492207211E0,-1.136195660E0,1.490219116E0,1.417154551E0
4.508406211E0,-7.477724552E-2,7.040205002E-1,9.208120108E-1
4.518058211E0,8.939062357E-1,-4.732580185E-1,-7.731401920E-1
4.528028211E0,2.167946100E0,-2.867087364E0,-1.268832207E0
4.537989211E0,3.377674818E0,-5.464477539E0,-2.815425396E0
4.548090211E0,3.066435337E0,-7.827925682E0,-4.277028084E0
4.559473211E0,1.758339405E0,-1.004552746E1,-5.842951775E0
4.568395211E0,2.062377930E0,-1.012455940E1,-5.637602806E0
4.578106211E0,1.768326640E0,-1.314996338E1,-7.729629993E0
4.588258211E0,-2.089311600E0,-6.406628609E0,-1.089941311E1
4.598161211E0,6.012318730E-1,-3.925803185E0,-8.971590996E0
4.609586211E0,1.219353676E-1,-3.462077141E0,-4.194419384E0
4.618313211E0,-2.817878127E-1,-4.068676949E0,-8.147399426E-1
4.628389211E0,-5.617977381E-1,-4.889580727E0,1.426501155E0
4.638070211E0,-1.563491225E-1,-5.138578415E0,1.638430715E0
4.648016211E0,-6.395087242E-1,-5.100251198E0,1.940320373E0
4.658447211E0,-1.365896106E0,-5.049554825E0,2.634026289E0
4.669376211E0,-1.894541144E0,-4.628909111E0,3.038752794E0
4.679463211E0,-2.611028433E0,-3.682950974E0,3.601268530E0
4.688401211E0,-3.270375490E0,-2.495418549E0,4.139772415E0
4.698038211E0,-3.360959768E0,-1.420530319E0,4.308977604E0
4.708250211E0,-2.675854206E0,-4.617700577E-1,4.170251846E0
4.718089211E0,-1.595679522E0,4.289340973E-2,4.388430595E0
4.729066211E0,-1.122453690E0,4.147815704E-1,4.147865295E0
4.738031211E0,-1.116009831E0,9.318342209E-1,3.701589584E0
4.748028211E0,-1.841055751E0,1.577722073E0,3.829053402E0
4.758096211E0,-2.766939163E0,2.346256256E0,4.273447037E0
4.768222211E0,-3.116216421E0,3.021901608E0,4.128602028E0
4.778621211E0,-3.441546202E0,3.113885880E0,4.122440338E0
4.788160211E0,-3.336705208E0,2.687046051E0,4.088152885E0
4.798115211E0,-2.850952625E0,1.895452023E0,3.773405790E0
4.808092211E0,-2.515174866E0,1.056107521E0,3.335131645E0
4.818115211E0,-2.296893597E0,4.341382980E-1,2.952762604E0
4.828564211E0,-2.105770350E0,-2.341365814E-2,2.654134512E0
4.838299211E0,-2.042698622E0,-3.529310226E-1,2.465571880E0
4.848515211E0,-1.903633237E0,-4.769268036E-1,2.498220205E0
4.858191211E0,-1.674928784E0,-3.260240555E-1,2.329254150E0
4.869039211E0,-1.361484289E0,2.191162109E-2,2.149278879E0
4.878061211E0,-1.013110280E0,4.906015396E-1,2.193593740E0
4.889036211E0,-5.898343325E-1,9.888610840E-1,2.407992840E0
4.898753211E0,-3.028358221E-1,1.501884460E0,2.808251858E0
4.908393211E0,-1.272691190E-1,1.923048496E0,3.197663784E0
4.920075211E0,-3.313040733E-2,2.082203865E0,3.459657669E0
4.928116211E0,2.505435795E-2,2.056791306E0,2.871419430E0
4.938232211E0,5.679536611E-2,1.935150146E0,2.323592186E0
4.947920211E0,1.159975007E-1,1.718161583E0,1.859289885E0
4.958006211E0,3.648524284E-1,1.419901848E0,1.474102974E0
4.969276211E0,6.531836390E-1,1.130275726E0,1.254679799E0
4.978107211E0,9.569762945E-1,9.116125107E-1,9.637473822E-1
4.988231211E0,1.256663680E0,7.453565598E-1,6.722364426E-1
4.998161211E0,1.553666234E0,5.877151489E-1,4.028290510E-1
5.008025211E0,1.817816257E0,5.132932663E-1,1.320767403E-1
5.018242211E0,1.941882014E0,4.846210480E-1,1.420469284E-1
5.027948211E0,1.776578665E0,5.616855621E-1,2.605015039E-1
5.037930211E0,5.579372644E-1,9.200115204E-1,7.727491856E-2
5.047957211E0,1.808616072E-1,1.119143486E0,-7.008007765E-1
5.058543211E0,7.488552928E-1,8.884906769E-1,-1.104460001E0
5.068044211E0,1.229687095E0,5.304002762E-1,-1.177010298E0
5.078061211E0,1.693731427E0,1.152629852E-1,-1.203214288E0
5.091982211E0,1.870982409E0,-2.156181335E-1,-2.162527084E0
5.107996211E0,1.967909575E0,-2.477788925E-1,-2.339649916E0
5.117925211E0,2.010509968E0,-2.673969269E-1,-2.335901976E0
5.128162211E0,1.948398232E0,-2.461347580E-1,-1.708295584E0
5.138657211E0,1.996852160E0,-7.729339600E-2,-1.211323500E0
5.149636211E0,2.261151314E0,-4.217891693E-1,-9.150474072E-1
5.157991211E0,2.555480719E0,-1.060048103E0,-1.123647451E0
5.167921211E0,2.876148224E0,-1.866094589E0,-1.257147074E0
5.178515211E0,3.191063881E0,-2.709743500E0,-1.010258913E0
5.189207211E0,3.251127481E0,-3.672256470E0,-4.591682553E-1
5.199695211E0,3.534410238E0,-4.640266418E0,1.079266667E-1
5.207935211E0,3.947585344E0,-5.777327538E0,8.738520741E-1
5.218517211E0,3.980648279E0,-6.559480667E0,1.281165004E0
5.229277211E0,3.906760931E0,-7.039636612E0,1.168451667E0
5.238317211E0,3.632333994E0,-6.879099846E0,6.666173935E-1
5.248743211E0,3.026311398E0,-6.821105957E0,7.996845245E-2
5.258030211E0,2.123526812E0,-6.021061897E0,-2.926315069E-1
5.267939211E0,1.050406337E0,-4.368151665E0,-1.682463884E-1
5.278259211E0,2.769637108E-1,-2.510746956E0,2.634738684E-1
5.288053211E0,-8.144199848E-2,-1.044878006E0,6.026935577E-1
5.298162211E0,-2.432017326E-1,1.527748108E-1,8.236591816E-1
5.308013211E0,-4.743126333E-1,1.260426521E0,9.908236265E-1
5.319343211E0,-7.265045643E-1,2.025802612E0,1.312782407E0
5.328180211E0,-9.570952654E-1,2.521173477E0,1.687641621E0
5.338458211E0,-1.119689941E0,2.710544109E0,2.147356272E0
5.348317211E0,-1.418491364E0,2.655995846E0,2.505073786E0
5.358167211E0,-1.795776129E0,2.271508694E0,2.838333607E0
5.369584211E0,-2.328810930E0,1.632685184E0,3.023352385E0
5.378250211E0,-2.871490002E0,6.612520218E-1,3.061329365E0
5.388047211E0,-3.158712626E0,-5.847301483E-1,3.147826910E0
5.398942211E0,-2.998214722E0,-2.114913940E0,3.669227362E0
5.408095211E0,-3.206375360E0,-3.127714157E0,3.975671291E0
5.419753211E0,-4.061870575E0,-2.966964722E0,3.984474182E0
5.428047211E0,-5.209660530E0,-1.415080070E0,4.401856422E0
5.438075211E0,-5.396096230E0,-1.678562164E-1,4.196809769E0
5.449682211E0,-4.591055870E0,6.336708069E-1,3.627780199E0
5.458158211E0,-3.961277962E0,1.444693565E0,3.171387911E0
5.468048211E0,-3.256381512E0,2.216984272E0,2.869702816E0
5.478289211E0,-2.716961861E0,2.944174290E0,2.565812111E0
5.487983211E0,-2.128038406E0,3.495186329E0,2.417697191E0
5.498083211E0,-1.396425962E0,3.640777111E0,2.026107788E0
5.509225211E0,-1.044487715E0,3.681610107E0,1.646293044E0
5.518114211E0,-8.102160692E-1,3.327325821E0,9.779169559E-1
5.528020211E0,-1.362289310E0,3.419856071E0,7.242207527E-1
5.538046211E0,-1.565998554E0,3.343029022E0,6.137082577E-1
5.548065211E0,-1.194579482E0,2.882265568E0,6.715519428E-1
5.558000211E0,-5.777542591E-1,2.362267971E0,7.582826614E-1
5.568033211E0,4.953533411E-3,2.056069851E0,8.005282879E-1
5.577970211E0,6.817132831E-1,1.804368019E0,9.453847408E-1
5.588728211E0,1.062010527E0,1.665582180E0,1.172981024E0
5.599759211E0,1.114849567E0,1.649668217E0,1.508773327E0
5.608051211E0,1.134438038E0,1.658749104E0,1.489244938E0
5.618756211E0,1.224100471E0,1.510978699E0,1.681273699E0
5.628125211E0,1.286446571E0,1.230515003E0,1.952417850E0
5.638319211E0,1.372050524E0,8.554754257E-1,2.167294502E0
5.648356211E0,1.523436546E0,4.322919846E-1,2.255129814E0
5.658757211E0,1.916745186E0,-3.925132751E-1,1.932372212E0
5.669407211E0,1.915963650E0,-3.498144150E-1,1.501589298E0
5.678159211E0,2.335365534E0,-8.447246552E-1,1.110689878E0
5.688154211E0,2.637182713E0,-1.111039162E0,3.550970554E-1
5.698088211E0,2.826977253E0,-1.674965858E0,-1.249860048E0
5.708447211E0,2.459462166E0,-1.966160774E0,-4.434923172E0
5.719207211E0,6.676520109E-1,-1.396116257E0,-8.354002953E0
5.728015211E0,-9.364385605E-1,-1.431876183E0,-1.233269691E1
5.737992211E0,-1.432775497E0,-2.424768448E0,-1.231365681E1
5.747998211E0,-1.227020025E0,-2.193623543E0,-8.899839401E0
5.758251211E0,-1.407528818E-1,-1.276078224E0,-6.704753399E0
5.768119211E0,1.028607488E0,-9.408912659E-1,-4.304268360E0
5.777951211E0,1.381990671E0,-1.500809669E0,-1.315330744E0
5.788988211E0,1.778432012E0,-2.748480797E0,8.252947330E-1
5.798074211E0,1.450397134E0,-4.607600212E0,1.418123245E0
5.808391211E0,2.720704079E-1,-6.251395226E0,1.024274588E0
5.818116211E0,-1.105802536E0,-7.223421097E0,1.963629723E-1
5.828172211E0,-2.201750755E0,-7.772095680E0,1.036803246E0
5.838136211E0,-2.871002674E0,-8.222716331E0,2.782763958E0
5.847981211E0,-3.334494352E0,-8.053591728E0,5.449060917E0
5.857961211E0,-3.688868523E0,-6.193695068E0,7.283556938E0
5.867958211E0,-3.459364414E0,-3.213943481E0,6.503289223E0
5.878250211E0,-2.168044567E0,-5.393037796E-1,4.522439480E0
5.888085211E0,-1.063395858E0,1.176782608E0,3.522042513E0
5.897950211E0,-4.975862503E-1,2.312276840E0,3.058722496E0
5.908117211E0,-2.671808600E-1,2.915835857E0,3.009682178E0
5.918058211E0,-9.109804034E-2,2.880126953E0,3.226622820E0
5.927984211E0,3.932955265E-1,2.052520275E0,3.355374813E0
5.938120211E0,8.081436157E-1,8.901100159E-1,3.468086720E0
5.947975211E0,1.133680820E0,-2.176895142E-1,3.686635971E0
5.958117211E0,1.213948488E0,-9.395370483E-1,3.905135155E0
5.968171211E0,8.594927788E-1,-9.794673920E-1,4.094249725E0
5.978664211E0,2.455088198E-1,-4.444847107E-1,4.301384449E0
5.988520211E0,-1.001218557E-1,3.103590012E-1,4.170640945E0
5.998342211E0,-2.233218551E-1,8.699903488E-1,3.900727987E0
6.008006211E0,-2.022556812E-1,1.149235725E0,3.762436628E0
6.018087211E0,-1.660626680E-1,1.268103123E0,3.671652317E0
6.029158211E0,-2.323439419E-1,1.362349033E0,3.641359806E0
6.038166211E0,-4.002817571E-1,1.501245499E0,3.603775024E0
6.047993211E0,-5.507073402E-1,1.665324211E0,3.557636261E0
6.058282211E0,-7.190855742E-1,1.867277145E0,3.481583118E0
6.069325211E0,-9.337114692E-1,2.127876282E0,3.388630152E0
6.078037211E0,-1.146632671E0,2.406268120E0,3.255283117E0
6.088445211E0,-1.297801375E0,2.570215225E0,3.076801777E0
6.098079211E0,-1.380144477E0,2.558519363E0,2.895615101E0
6.108093211E0,-1.337593913E0,2.337641239E0,2.718225718E0
6.118029211E0,-1.216343045E0,2.003955841E0,2.499132633E0
6.128824211E0,-1.046260595E0,1.604960918E0,2.242441654E0
6.138371211E0,-8.993343115E-1,1.252381325E0,2.027202129E0
6.147970211E0,-7.476525903E-1,9.668750763E-1,1.806297064E0
6.159152211E0,-3.497585952E-1,7.570381165E-1,1.015715003E0
6.168846211E0,-1.004573703E-2,9.985132217E-1,3.848292828E-1
6.178186211E0,1.740881801E-2,1.032374382E0,2.531480789E-1
6.189122211E0,7.114444375E-1,5.921945572E-1,2.234148979E-2
6.198282211E0,1.185630560E0,2.404689789E-2,2.266418934E-2
6.207986211E0,1.215687156E0,3.867273331E-1,-8.892917633E-2
6.219578211E0,1.393289089E0,5.731344223E-1,-2.377992868E-1
6.227961211E0,1.640869856E0,5.334262848E-1,-6.011164188E-1
6.241363211E0,1.863569140E0,3.174047470E-1,-1.018344641E0
6.258219211E0,1.937965989E0,2.844142914E-2,-1.782917500E0
6.268200211E0,1.843068957E0,-5.148601532E-2,-2.016296387E0
6.277976211E0,1.723552823E0,-2.652797699E-1,-2.003003359E0
6.288059211E0,1.644609690E0,-5.084018707E-1,-1.901854157E0
6.298067211E0,1.890162349E0,-6.285772324E-1,-1.948830366E0
6.308100211E0,2.536219120E0,-9.563808441E-1,-2.032103300E0
6.318053211E0,3.258826494E0,-1.570702553E0,-2.058358192E0
6.327994211E0,3.646681786E0,-2.296356201E0,-2.032168865E0
6.338054211E0,3.879585266E0,-3.139211655E0,-1.782082796E0
6.348139211E0,4.075695992E0,-3.920392990E0,-1.305186033E0
6.358194211E0,3.953240633E0,-4.504444122E0,-4.757266641E-1
6.368324211E0,3.806434393E0,-4.800107002E0,4.192641377E-1
6.378408211E0,3.705410242E0,-5.118536949E0,9.859896302E-1
6.388112211E0,3.619720221E0,-5.370738983E0,1.441771269E0
6.398103211E0,3.046114922E0,-5.432000160E0,1.662883043E0
6.408257211E0,2.624578714E0,-5.364690781E0,1.708861470E0
6.418199211E0,1.672301292E0,-5.159573555E0,1.711003780E0
6.428043211E0,7.378762364E-1,-4.021956444E0,1.676393628E0
6.438042211E0,-3.760927916E-2,-2.606676102E0,1.698103905E0
6.448037211E0,-6.836463213E-1,-1.086260796E0,1.698623538E0
6.458383211E0,-1.213140488E0,-8.723258972E-3,1.637738585E0
6.467990211E0,-1.745773435E0,8.156585693E-1,1.741073132E0
6.478183211E0,-2.136351824E0,1.372047424E0,1.933486700E0
6.488096211E0,-2.243764162E0,1.687781334E0,2.174155712E0
6.498102211E0,-2.040867805E0,1.556145668E0,2.554276466E0
6.507986211E0,-1.878110647E0,1.012168884E0,2.907491446E0
6.518058211E0,-1.642052412E0,-2.622270584E-1,3.047957897E0
6.528065211E0,-1.835015059E0,-1.647756577E0,3.392305613E0
6.538108211E0,-2.907114983E0,-2.275441170E0,4.208010674E0
6.548404211E0,-4.897942543E0,-1.398182869E0,5.442927361E0
6.558319211E0,-6.363315105E0,-3.642654419E-1,5.833645344E0
6.568000211E0,-5.900831223E0,-4.080715179E-1,5.372071266E0
6.578048211E0,-4.144357681E0,-7.552137375E-1,4.498686314E0
6.588905211E0,-2.840649843E0,-4.248123169E-1,3.790162802E0
6.598546211E0,-2.256629467E0,3.033447266E-1,3.302495480E0
6.608088211E0,-1.941737294E0,1.054994106E0,2.942326069E0
6.618409211E0,-1.600342274E0,1.742299557E0,2.671180725E0
6.627983211E0,-9.947746992E-1,2.263757706E0,2.385453701E0
6.638309211E0,-6.187093854E-1,2.677151680E0,2.074884415E0
6.648014211E0,-2.440226972E-1,2.844841957E0,1.594193459E0
6.658068211E0,9.201221168E-2,2.771966934E0,1.126573086E0
6.667944211E0,-3.676113486E-1,3.085810184E0,5.661149025E-1
6.678392211E0,-5.747999549E-1,3.311536312E0,4.224820137E-1
6.688062211E0,1.917214394E-1,2.975455761E0,5.274295807E-3
6.698160211E0,1.137002945E0,2.533917904E0,-5.164346695E-1
6.708014211E0,1.472531676E0,2.340393066E0,-5.367455482E-1
6.718225211E0,1.422073960E0,2.305862427E0,-2.669682503E-1
6.728425211E0,6.650552750E-1,2.034333706E0,9.115948677E-1
6.738117211E0,7.255300283E-1,1.689188957E0,1.914789915E0
6.748478211E0,8.303589821E-1,1.516031742E0,2.523562193E0
6.758250211E0,8.676747084E-1,1.372133732E0,2.946764231E0
6.768129211E0,1.051603436E0,1.272249222E0,3.263484001E0
6.778365211E0,1.399300456E0,1.233171940E0,3.681111336E0
6.788017211E0,2.039192200E0,1.102140427E0,4.016656876E0
6.798623211E0,2.104475260E0,4.328975677E-1,3.654349566E0
6.808056211E0,1.888040662E0,-2.832260132E-1,3.310476780E0
6.818004211E0,1.765275598E0,-7.274580002E-1,3.239560604E0
6.828133211E0,1.795513630E0,-8.906555176E-1,3.472219706E0
6.839296211E0,1.713498116E0,-8.997373581E-1,3.834398746E0
6.848428211E0,1.684875011E0,-1.073341370E0,3.737426519E0
6.858032211E0,1.713479638E0,-1.581915855E0,2.712449312E0
6.868224211E0,1.625689626E0,-2.516078949E0,1.074289799E0
6.878310211E0,9.261952639E-1,-3.441136360E0,-3.019065142E0
6.888036211E0,-5.131776929E-1,-3.657711029E0,-1.070957184E1
6.898021211E0,-1.509120703E0,-2.926189423E0,-1.465783978E1
6.908065211E0,-3.134396076E-1,-2.593127251E0,-2.069712067E1
6.918148211E0,1.031101227E0,-7.968358994E-1,-8.666967392E0
6.928528211E0,1.955903530E0,1.241645336E0,-5.472870827E0
6.938083211E0,1.698012352E0,9.044599533E-1,-3.035698175E0
6.947989211E0,1.581165791E0,-1.623658180E0,-7.129004002E-1
6.958200211E0,1.551107407E0,-4.671966553E0,5.878593922E-1
6.967960211E0,7.699638605E-1,-6.944851875E0,1.559993505E0
6.978737211E0,-4.541529417E-1,-7.830778122E0,1.548309088E0
6.988337211E0,-1.557432294E0,-8.330553055E0,2.399703741E0
6.998335211E0,-1.914020419E0,-8.542641640E0,3.975543976E0
7.008449211E0,-2.050992489E0,-7.734724998E0,6.467688560E0
7.020342211E0,-2.208182335E0,-5.298953056E0,6.416319847E0
7.028378211E0,-2.552953720E0,-2.649891853E0,7.115011215E0
7.037839211E0,-2.320716143E0,-4.687747955E-1,6.144162655E0
7.048038211E0,-1.798347592E0,1.184249878E0,4.729946613E0
7.058322211E0,-1.370448112E0,2.213137150E0,3.967075825E0
7.067961211E0,-1.268180847E0,2.900110722E0,3.673699141E0
7.078051211E0,-1.227940083E0,3.041685581E0,3.673642397E0
7.088029211E0,-1.089327693E0,2.048603535E0,3.903565407E0
7.098180211E0,-7.064920068E-1,2.559938431E-1,4.113702774E0
7.107984211E0,-1.560036391E-1,-1.596703529E0,4.149178028E0
7.117952211E0,2.149680108E-1,-2.953085899E0,4.220023155E0
7.127928211E0,6.144040823E-2,-3.349917412E0,4.431725979E0
7.138387211E0,-3.173419237E-1,-2.560966492E0,4.443752289E0
7.148595211E0,-4.633489251E-1,-1.109685898E0,4.194342136E0
7.158481211E0,-3.524829149E-1,8.429527283E-2,3.917941570E0
7.167959211E0,-2.327834964E-1,8.693304062E-1,3.743708611E0
7.178099211E0,-2.597355247E-1,1.571748257E0,3.664631844E0
7.188084211E0,-4.227471352E-1,2.151985168E0,3.567117453E0
7.197971211E0,-6.265241504E-1,2.639503956E0,3.545809746E0
7.207959211E0,-8.261756897E-1,3.020936489E0,3.426336527E0
7.218082211E0,-1.035812736E0,3.303137302E0,3.335082054E0
7.228203211E0,-1.299160957E0,3.446933746E0,3.230056763E0
7.238167211E0,-1.482846856E0,3.414837837E0,3.064008951E0
7.247984211E0,-1.631809950E0,3.238894939E0,2.856313467E0
7.258217211E0,-1.710993767E0,3.029887199E0,2.637753248E0
7.267988211E0,-1.733458400E0,2.804801464E0,2.355602741E0
7.278031211E0,-1.435556889E0,2.072772026E0,1.880848885E0
7.288056211E0,-1.257336855E0,1.744715214E0,1.371165633E0
7.298239211E0,-6.446547508E-1,1.366191864E0,7.441442013E-1
7.308072211E0,-7.812127471E-3,6.760253906E-1,3.321113586E-1
7.318037211E0,3.826936483E-1,2.268266678E-1,1.921033859E-2
7.328001211E0,7.972174883E-1,-5.424404144E-2,-2.600948811E-1
7.340376211E0,1.279739380E0,-2.350368500E-1,-5.800111294E-1
7.358330211E0,2.144821882E0,-3.169107437E-1,-1.286512375E0
7.369382211E0,2.418264866E0,-2.540178299E-1,-1.570546627E0
7.378058211E0,2.574682474E0,-1.161956787E-1,-1.775086761E0
7.388367211E0,2.646153450E0,5.092525482E-2,-1.987934351E0
7.397941211E0,2.645897627E0,1.919488907E-1,-2.117968798E0
7.407939211E0,2.667113543E0,2.764253616E-1,-2.116292953E0
7.418040211E0,2.633690357E0,2.749643326E-1,-1.909689069E0
7.428156211E0,2.441023827E0,1.103200912E-1,-1.521791101E0
7.438004211E0,2.184900522E0,-2.625122070E-1,-9.744722843E-1
7.448080211E0,1.983751416E0,-6.072225571E-1,-4.630939364E-1
7.458220211E0,1.912807703E0,-9.010152817E-1,-1.595901847E-1
7.467953211E0,2.081278086E0,-1.368961334E0,2.341032028E-3
7.478467211E0,2.533994913E0,-1.901007652E0,-3.462183475E-2
7.488133211E0,3.120575905E0,-2.621993065E0,-9.957683086E-2
7.498383211E0,3.634032965E0,-3.476220131E0,-1.451975107E-1
7.508167211E0,3.967683077E0,-4.198353767E0,-2.425074577E-2
7.518380211E0,4.062163830E0,-4.694022179E0,2.835077047E-1
7.528066211E0,3.901350975E0,-5.029183388E0,6.335019469E-1
7.538151211E0,3.582472324E0,-5.065615654E0,9.161760807E-1
7.548813211E0,2.949859619E0,-4.976240158E0,1.084387541E0
7.558156211E0,2.457859755E0,-4.943438530E0,1.145455480E0
7.568157211E0,1.815346479E0,-4.832724571E0,1.194031477E0
7.578170211E0,8.855012655E-1,-4.238627434E0,1.257891774E0
7.595058211E0,-5.596377850E-1,-1.744052887E0,1.069860339E0
7.608257211E0,-8.501092196E-1,-7.933616638E-1,1.157484770E0
7.618089211E0,-1.150830030E0,6.840705872E-3,1.477509022E0
7.628069211E0,-1.548791051E0,6.035947800E-1,1.889108896E0
7.638558211E0,-1.905241728E0,9.402198792E-1,2.244486332E0
7.648197211E0,-1.955716848E0,7.830657959E-1,2.430592299E0
7.658496211E0,-1.816237807E0,-1.743831635E-1,2.690597534E0
7.668141211E0,-2.159554005E0,-1.355926514E0,3.063359976E0
7.678102211E0,-3.225564718E0,-1.990952492E0,3.848850489E0
7.688897211E0,-5.052890301E0,-1.408642769E0,5.113591194E0
7.698175211E0,-6.452966690E0,-5.765647888E-1,5.808437347E0
7.708337211E0,-5.891895771E0,-3.234729767E-1,5.716376781E0
7.718391211E0,-4.031620026E0,-3.530359268E-1,4.815900326E0
7.728182211E0,-2.666697264E0,-2.759208679E-1,3.988848686E0
7.738284211E0,-1.847953081E0,-1.214628220E-1,3.415658474E0
7.748504211E0,-1.395407319E0,2.738142014E-1,2.977161884E0
7.759248211E0,-1.075881481E0,8.395080566E-1,2.687864780E0
7.768022211E0,-6.624889374E-1,1.448944092E0,2.424296379E0
7.778018211E0,-4.096655250E-1,2.136983871E0,2.208834171E0
7.788507211E0,-1.300759912E-1,2.615060329E0,1.965954661E0
7.798106211E0,1.850318909E-2,2.962979317E0,1.700372458E0
7.808000211E0,1.546621621E-1,3.110150814E0,9.399456978E-1
7.818017211E0,4.195340276E-1,3.175939083E0,8.026504517E-1
7.827944211E0,3.333849907E-1,3.312869072E0,1.133115292E0
7.838053211E0,7.497706413E-1,2.964216232E0,1.356101274E0
7.847985211E0,1.181505084E0,2.470639706E0,1.314997435E0
7.858029211E0,1.314251184E0,2.175173759E0,1.093422174E0
7.867945211E0,1.026681304E0,2.084232330E0,1.043178558E0
7.878496211E0,7.316318750E-1,2.029654503E0,1.379033804E0
7.888568211E0,5.952907205E-1,1.804447651E0,1.889441967E0
7.898037211E0,4.319071770E-1,1.621549129E0,2.367670536E0
7.907954211E0,5.608471632E-1,1.386769772E0,2.816231728E0
7.917926211E0,8.058679104E-1,1.203641415E0,3.158289909E0
7.928393211E0,7.160093784E-1,1.050794125E0,3.426821947E0
7.938410211E0,5.266450644E-1,7.913932800E-1,3.669745445E0
7.947971211E0,6.977690458E-1,3.612546921E-1,3.825373650E0
7.958455211E0,1.056976199E0,-1.029319763E-1,3.793082237E0
7.972555211E0,1.419380069E0,-4.795179367E-1,3.627061605E0
7.988146211E0,1.966074944E0,-9.275989532E-1,3.287855148E0
7.999785211E0,2.978822470E0,-8.473939896E-1,3.268701553E0
8.008060211E0,4.032888412E0,-9.628877640E-1,2.316816807E0
8.018845211E0,3.588232994E0,-2.309456825E0,-1.106978893E0
8.028040211E0,2.203217506E0,-3.590126038E0,-7.229331970E0
8.039426211E0,2.956906259E-1,-3.082491875E0,-1.244780731E1
8.048080211E0,-1.439906240E0,-2.282893181E0,-1.842163849E1
8.058456211E0,-1.856657505E0,-1.586266518E0,-1.240448284E1
8.068219211E0,-1.265314221E0,-3.497009277E-1,-6.871842384E0
8.078055211E0,1.820133328E-1,-1.259956360E-1,-5.018939018E0
8.088393211E0,6.638951302E-1,-1.386677742E0,-2.014398813E0
8.098151211E0,6.193508506E-1,-3.471286774E0,-7.138180733E-2
8.112796211E0,5.842422843E-1,-5.705027580E0,7.379682064E-1
8.128055211E0,-8.987680674E-1,-7.900261879E0,1.868777990E0
8.138100211E0,-1.668298602E0,-7.842442513E0,2.537731171E0
8.147995211E0,-1.993273616E0,-7.211670876E0,3.932473183E0
8.158130211E0,-1.988980651E0,-5.878667831E0,5.974453926E0
8.168146211E0,-2.462125063E0,-3.628502846E0,7.289900780E0
8.177980211E0,-2.402877569E0,-1.333798409E0,6.393973351E0
8.188051211E0,-1.694081903E0,3.303041458E-1,4.908055782E0
8.197961211E0,-9.248043895E-1,1.203921318E0,4.076410770E0
8.208205211E0,-6.998495460E-1,1.553572178E0,3.835743189E0
8.218297211E0,-6.841230989E-1,1.508442402E0,4.006076336E0
8.228105211E0,-3.498695195E-1,7.675075531E-1,4.112516403E0
8.237979211E0,1.707913727E-1,-2.251319885E-1,4.222693920E0
8.248059211E0,5.129198432E-1,-1.026442528E0,4.367265224E0
8.257960211E0,7.907738090E-1,-1.579739571E0,4.446047306E0
8.267898211E0,8.344541192E-1,-1.721842766E0,4.510739326E0
8.278035211E0,4.913566113E-1,-1.132757187E0,4.532549858E0
8.288151211E0,3.372048587E-2,-1.861257553E-1,4.357418537E0
8.298131211E0,-4.547068849E-2,2.716331482E-1,3.916225433E0
8.308221211E0,3.283420205E-2,4.683837891E-1,3.654817104E0
8.319435211E0,-2.533418834E-1,7.894268036E-1,3.587359905E0
8.328097211E0,-2.305444330E-1,7.979764938E-1,3.563177109E0
8.339471211E0,-4.889354706E-1,1.197907448E0,3.654351950E0
8.347928211E0,-6.555315852E-1,1.522155285E0,3.506032944E0
8.358588211E0,-7.900171280E-1,1.832081795E0,3.334661722E0
8.367972211E0,-8.213758469E-1,2.080876827E0,3.161673069E0
8.382161211E0,-7.854238153E-1,2.302946568E0,2.970936775E0
8.397984211E0,-7.159703970E-1,2.704511642E0,2.592992783E0
8.408860211E0,-6.571469307E-1,2.824917316E0,2.374887466E0
8.418591211E0,-6.359735131E-1,2.863240242E0,2.095059156E0
8.427996211E0,-5.122641921E-1,2.729273319E0,1.746568441E0
8.438333211E0,-3.249823153E-1,2.366954327E0,1.461040497E0
8.447960211E0,-2.389149964E-1,1.980117321E0,1.174710035E0
8.458595211E0,-2.008950114E-1,1.703126431E0,7.355506420E-1
8.468526211E0,-1.278912723E-1,1.440481186E0,4.672591686E-1
8.478587211E0,7.071661949E-2,1.132955551E0,2.507288456E-1
8.487955211E0,4.887776375E-1,5.944032669E-1,4.218864441E-2
8.498005211E0,8.742897511E-1,1.540527344E-1,-8.731234074E-2
8.507966211E0,1.266787529E0,-1.084880829E-1,-1.036223173E-1
8.517912211E0,1.614337206E0,-2.769584656E-1,-1.238806248E-1
8.527911211E0,1.920247316E0,-3.819637299E-1,-2.102501392E-1
8.538169211E0,2.175514221E0,-3.954925537E-1,-3.185883760E-1
8.548097211E0,2.262712240E0,-2.905492783E-1,-5.205740929E-1
8.557992211E0,2.237039328E0,-1.662454605E-1,-7.195622921E-1
8.567945211E0,2.144661903E0,-1.156158447E-1,-9.545925856E-1
8.578351211E0,2.123523951E0,-2.822885513E-1,-1.128277540E0
8.588259211E0,2.128164530E0,-6.290130615E-1,-1.249311566E0
8.598126211E0,2.179516315E0,-1.006306648E0,-1.350681067E0
8.608182211E0,2.252225399E0,-1.246393204E0,-1.445262551E0
8.618448211E0,2.493192911E0,-1.363878250E0,-1.646355510E0
8.627980211E0,2.905918598E0,-1.484375000E0,-1.945045829E0
8.638291211E0,3.208839655E0,-1.739149094E0,-2.123432398E0
8.648029211E0,3.565806150E0,-2.196008682E0,-2.044557571E0
8.658282211E0,3.830065012E0,-2.726373672E0,-1.820184827E0
8.670023211E0,3.985816717E0,-3.234377861E0,-1.421223402E0
8.678296211E0,4.147098541E0,-3.739255905E0,-9.145897031E-1
8.688008211E0,3.860976219E0,-4.415572166E0,-3.019008636E-1
8.698275211E0,3.596157789E0,-4.874065399E0,1.412649155E-1
8.708000211E0,3.332424879E0,-5.087073326E0,4.691606462E-1
8.718014211E0,2.299117088E0,-4.960794449E0,7.534691691E-1
8.727921211E0,1.488860846E0,-4.293150902E0,9.529687762E-1
8.738413211E0,6.807332039E-1,-3.228653908E0,9.707079530E-1
8.747990211E0,9.528568387E-2,-1.763022423E0,1.051652551E0
8.758000211E0,-4.024360180E-1,-5.850486755E-1,1.030917764E0
8.767987211E0,-7.760250568E-1,1.827096939E-1,1.248515368E0
8.778218211E0,-1.149853826E0,7.228498459E-1,1.520903826E0
8.788468211E0,-1.370764017E0,1.101518631E0,1.713088274E0
8.798420211E0,-1.414602399E0,1.141663551E0,2.075253248E0
8.808052211E0,-1.394649267E0,7.319841385E-1,2.332597256E0
8.818074211E0,-1.195446491E0,-2.496547699E-1,2.484914303E0
8.828153211E0,-1.260411859E0,-1.352475166E0,2.720093250E0
8.838059211E0,-1.952065229E0,-1.912639618E0,3.230111837E0
8.848389211E0,-3.677908659E0,-1.259077072E0,4.612721443E0
8.858495211E0,-5.280772686E0,-2.938346863E-1,5.327102184E0
8.868112211E0,-5.361188889E0,-3.282165527E-1,5.410127640E0
8.878434211E0,-3.605891705E0,-2.190694809E-1,4.496201515E0
8.888075211E0,-3.022956133E0,3.923082352E-1,4.009327888E0
8.898084211E0,-2.495544434E0,9.163217545E-1,3.522083044E0
8.908065211E0,-2.167460442E0,1.438066006E0,3.092780113E0
8.918232211E0,-1.812203169E0,1.850591183E0,2.904806614E0
8.928038211E0,-1.498421311E0,2.243846416E0,2.832335949E0
8.941088211E0,-1.259106040E0,2.500042439E0,2.637010813E0
8.958258211E0,-2.533165812E-1,2.444852829E0,2.342849731E0
8.968701211E0,3.394494653E-1,2.328214169E0,2.085892677E0
8.977992211E0,2.611802518E-1,2.394769192E0,1.353513718E0
8.988445211E0,2.921626270E-1,2.415109158E0,7.747685909E-1
8.998176211E0,4.979330003E-1,2.355915546E0,5.697281361E-1
9.007997211E0,6.904323697E-1,2.219991207E0,2.002568245E-1
9.018030211E0,1.039724469E0,1.945123196E0,1.150565147E-1
9.028079211E0,1.389330626E0,1.740981579E0,6.769587994E-1
9.038046211E0,1.632202148E0,1.724296093E0,1.576117277E0
9.048466211E0,1.848017693E0,1.771702290E0,1.820298910E0
9.057978211E0,2.035820246E0,1.736814022E0,1.436340332E0
9.067995211E0,2.138286591E0,1.536520004E0,1.429811478E0
9.078085211E0,1.932609916E0,1.371095657E0,1.702606201E0
9.087982211E0,1.353487134E0,1.056105614E0,1.967222452E0
9.097934211E0,1.177229166E0,4.075241089E-1,2.256796598E0
9.108137211E0,1.417996168E0,-2.835321426E-1,2.464787483E0
9.118386211E0,1.859540939E0,-6.399755478E-1,2.671648264E0
9.128030211E0,2.751375914E0,-5.940055847E-1,3.056491852E0
9.137937211E0,3.189344168E0,-8.625373840E-1,2.620754719E0
9.148217211E0,2.906850815E0,-1.485180855E0,1.839884996E0
9.158346211E0,2.383140564E0,-1.786151886E0,7.892179489E-1
9.167918211E0,1.597395420E0,-1.867741585E0,-1.530538797E0
9.178272211E0,1.043606758E0,-2.446977615E0,-8.291496277E0
9.188007211E0,-4.411085248E-1,-2.931966782E0,-1.309462833E1
9.198008211E0,-1.742096663E0,-2.735306740E0,-1.437813282E1
9.207956211E0,-1.955167055E0,-2.370909691E0,-1.251689911E1
9.217943211E0,-1.650606036E0,-2.124423981E-1,-4.128487587E0
9.228523211E0,6.630319357E-2,6.222553253E-1,-3.592057467E0
9.238377211E0,9.325401783E-1,-3.517045975E-1,-3.034903526E0
9.248024211E0,1.211753726E0,-2.705447197E0,-1.700559616E0
9.258429211E0,1.440098047E0,-5.380884171E0,-9.443483353E-1
9.267926211E0,1.203855395E0,-7.241439819E0,2.223351002E-1
9.278218211E0,4.461103678E-1,-8.099025726E0,1.100599289E0
9.288000211E0,-2.756128907E-1,-8.238344193E0,2.137117863E0
9.297933211E0,-8.105309606E-1,-7.825568199E0,4.193597794E0
9.308104211E0,-9.015940428E-1,-6.049563408E0,5.402938843E0
9.318051211E0,-1.054372549E0,-3.423339844E0,5.097881317E0
9.328003211E0,-1.020510674E0,-1.453867912E0,5.273290634E0
9.338043211E0,-8.289466500E-1,-8.994579315E-2,5.113641739E0
9.348018211E0,-7.223817706E-1,8.115234375E-1,4.862188816E0
9.358325211E0,-8.251616359E-1,1.444486618E0,4.777047634E0
9.367937211E0,-1.030329466E0,1.674484730E0,4.762603283E0
9.378057211E0,-1.388609409E0,1.701923370E0,4.899779320E0
9.388453211E0,-1.391475201E0,1.189419746E0,4.779528141E0
9.398035211E0,-9.448455572E-1,1.424684525E-1,4.757488251E0
9.408010211E0,-5.073759556E-1,-7.547912598E-1,4.739074707E0
9.418123211E0,-3.055771291E-1,-1.451477051E0,4.636983395E0
9.427954211E0,-4.819699526E-1,-1.083388329E0,4.483733654E0
9.438196211E0,-4.733015895E-1,-4.787807465E-1,4.295321465E0
9.448233211E0,-3.106463552E-1,1.416769028E-1,4.137559414E0
9.458122211E0,-2.990914881E-1,7.694864273E-1,4.073503017E0
9.468108211E0,-3.361924887E-1,1.263585091E0,4.002132416E0
9.478751211E0,-3.085230887E-1,1.562601566E0,3.906297445E0
9.489914211E0,-3.633943796E-1,1.762228489E0,3.779648304E0
9.497994211E0,-4.089448452E-1,1.869828701E0,3.581538677E0
9.508010211E0,-4.204170704E-1,1.984474182E0,3.347301483E0
9.518165211E0,-3.987259865E-1,2.135380268E0,3.209183216E0
9.528339211E0,-3.194169998E-1,2.279365063E0,3.102658033E0
9.538128211E0,-2.093181908E-1,2.347919941E0,2.964956284E0
9.548497211E0,-1.060580611E-1,2.362643242E0,2.839097738E0
9.558529211E0,-6.448298693E-3,2.291662216E0,2.739195347E0
9.568050211E0,1.691138744E-2,2.195012093E0,2.604897738E0
9.578220211E0,1.972731948E-2,2.039631367E0,2.377308369E0
9.588030211E0,8.619898558E-2,1.837765694E0,2.142652750E0
9.599041211E0,2.264784575E-1,1.545608997E0,1.816289544E0
9.608495211E0,2.894517779E-1,1.295053482E0,1.403233647E0
9.618709211E0,3.148803115E-1,1.154294014E0,8.622375727E-1
9.627966211E0,3.469782472E-1,6.338558197E-1,1.457722187E-1
9.638416211E0,7.004358768E-1,6.782884598E-1,-9.305000305E-2
9.648114211E0,1.217937708E0,-1.197271347E-1,-1.598005295E-1
9.658183211E0,1.368565440E0,-5.376300812E-1,-4.589717388E-1
9.668080211E0,1.456298590E0,-6.135482788E-1,-6.593798399E-1
9.678155211E0,1.662114978E0,-4.976882935E-1,-7.560943365E-1
9.688399211E0,1.957760572E0,-3.694181442E-1,-1.088701248E0
9.698130211E0,2.197525024E0,-1.920280457E-1,-1.387952089E0
9.708012211E0,2.340873241E0,-1.741676331E-1,-1.907313108E0
9.718058211E0,2.207957983E0,-1.941938400E-1,-2.673861504E0
9.729873211E0,1.960153103E0,-2.242803574E-1,-3.453699589E0
9.738600211E0,1.833949804E0,-2.124280930E-1,-4.022788048E0
9.747988211E0,1.989911318E0,-3.258037567E-1,-4.227820873E0
9.758080211E0,2.489186764E0,-2.638673782E-1,-4.387782097E0
9.768207211E0,3.096368313E0,-4.462194443E-1,-4.137355804E0
9.777984211E0,3.504193306E0,-1.007681847E0,-3.682383299E0
9.788011211E0,3.863299847E0,-1.962298393E0,-2.943548918E0
9.798098211E0,4.099915504E0,-3.077436447E0,-2.083403111E0
9.808098211E0,4.284289837E0,-4.193687439E0,-1.234195232E0
9.818079211E0,4.285966396E0,-5.008349419E0,-2.858071923E-1
9.828575211E0,4.050682068E0,-5.419263840E0,6.043611765E-1
9.838156211E0,3.683955193E0,-5.410970688E0,1.239848137E0
9.848407211E0,3.282743454E0,-5.082955360E0,1.622218370E0
9.858156211E0,2.503596783E0,-4.868047714E0,1.803783655E0
9.868444211E0,2.057535648E0,-4.699018478E0,1.836766005E0
9.878110211E0,1.384957314E0,-4.176545143E0,1.903541803E0
9.888068211E0,7.346194386E-1,-3.270992279E0,1.793437123E0
9.898203211E0,1.027767658E-1,-1.648221016E0,1.622644544E0
9.908605211E0,-5.201404095E-1,1.250076294E-2,1.338449955E0
9.918398211E0,-1.019261837E0,1.082621574E0,1.228662729E0
9.928677211E0,-1.352233291E0,1.679882526E0,1.211934328E0
9.938053211E0,-1.691848040E0,2.082503319E0,1.411144018E0
9.948005211E0,-1.899620652E0,2.064198494E0,1.678070545E0
9.958008211E0,-1.745923281E0,-4.240417480E-2,1.888037920E0
9.968594211E0,-1.726947546E0,-1.537096024E0,2.132362127E0
9.978691211E0,-2.780546188E0,-2.085804939E0,3.472183943E0
9.988157211E0,-5.196181297E0,-1.100173950E0,4.941843987E0
9.998481211E0,-6.544212341E0,-3.569259644E-1,5.903053284E0
1.000980821E1,-5.948379040E0,-5.516624451E-1,6.075371742E0
1.001834921E1,-4.405387878E0,-8.419952393E-1,5.553070068E0
1.002865921E1,-3.312716484E0,-4.450378418E-1,4.757875443E0
1.003802821E1,-2.530171871E0,6.980991364E-2,4.041609764E0
1.004797721E1,-1.988245606E0,6.048135757E-1,3.380800009E0
1.005806021E1,-1.589979768E0,1.172683239E0,2.931445122E0
1.006818121E1,-1.220608115E0,1.725883961E0,2.662465811E0
1.007875421E1,-8.154044151E-1,2.126648426E0,2.342709541E0
1.008863021E1,-6.210389733E-2,2.165393829E0,1.777297854E0
1.009830421E1,1.709537059E-1,2.342687607E0,9.818191528E-1
1.010804621E1,-3.425681293E-1,2.799885750E0,6.251788139E-1
1.011905521E1,-1.086592674E-2,2.557893276E0,-2.040476799E-1
1.012794121E1,6.234159470E-1,2.240483761E0,-1.363806963E0
1.013824921E1,1.153862000E0,2.056484222E0,-2.378056288E0
1.014844021E1,1.610633612E0,1.950700283E0,-2.441662550E0
1.015801321E1,1.585886717E0,2.196886539E0,-1.925576210E0
1.016795621E1,1.555405855E0,2.722317696E0,-1.234212875E0
1.017827221E1,1.756192923E0,2.656571865E0,5.842273235E-1
1.018814821E1,1.667998552E0,2.514367104E0,1.558574677E0
1.019804121E1,1.493732929E0,2.224187374E0,2.041654110E0
1.020811421E1,1.476798296E0,2.012919426E0,2.548743725E0
1.021818921E1,1.607075453E0,1.647659302E0,2.766421795E0
1.022863121E1,1.413065553E0,1.144160271E0,2.895658970E0
1.023799321E1,1.192578077E0,5.310029984E-1,2.974436760E0
1.024872821E1,1.033486485E0,-3.844547272E-2,3.093523741E0
1.025821921E1,8.277083039E-1,-4.278602600E-1,3.039323330E0
1.026819921E1,7.066846490E-1,-6.683397293E-1,2.756912708E0
1.027804421E1,7.310404778E-1,-7.336788177E-1,2.631332874E0
1.028796121E1,1.052913070E0,-5.165548325E-1,2.882484913E0
1.029814121E1,1.498624802E0,-2.864665985E-1,3.038082361E0
1.030820421E1,1.714300036E0,-4.202060699E-1,1.934979081E0
1.031865421E1,2.378434181E0,-1.200222015E0,-6.350116730E-1
1.032804821E1,2.654437780E0,-2.280040741E0,-5.911773205E0
1.033802621E1,9.685361385E-1,-2.556226730E0,-1.313820839E1
1.034806721E1,-1.217547297E0,-2.500851631E0,-1.625307274E1
1.035797721E1,-1.607365847E0,-2.806350708E0,-1.793878174E1
1.036795621E1,-1.712035775E0,-5.683135986E-1,-6.228519440E0
1.037845221E1,-5.138626099E-1,5.888195038E-1,-3.562456846E0
1.038801721E1,8.081898689E-1,-8.445816040E-1,-2.644819021E0
1.039799721E1,1.248342037E0,-3.426131248E0,-1.115114689E0
1.040802621E1,1.341527224E0,-5.455433846E0,-1.393208504E-1
1.041889821E1,9.454042315E-1,-6.789711952E0,9.171533585E-1
1.042870921E1,1.999995112E-1,-7.622701645E0,1.508367062E0
1.043861121E1,-4.291101098E-1,-7.817575455E0,2.135613918E0
1.044849021E1,-7.441325784E-1,-7.389387131E0,3.326694250E0
1.045916121E1,-1.290576220E0,-3.409194946E0,5.737100124E0
1.046845821E1,-1.369396567E0,-3.382654190E0,4.072065353E0
1.047949921E1,-8.442093134E-1,2.823057175E-1,3.962371588E0
1.048825521E1,-6.679996848E-1,1.141100883E0,4.045773983E0
1.049846521E1,-7.531530857E-1,1.520756721E0,4.105676651E0
1.050821921E1,-1.227408528E0,1.785272121E0,4.204621315E0
1.051893121E1,-1.886229992E0,1.933288574E0,4.248560905E0
1.052826021E1,-1.759580016E0,1.226862907E0,4.189657211E0
1.053954621E1,-1.189291954E0,3.792810440E-1,4.276598930E0
1.054840221E1,-7.886692286E-1,-1.747503281E-1,4.293168068E0
1.055856721E1,-5.762938261E-1,-4.298925400E-1,4.292417526E0
1.056798521E1,-5.088087320E-1,-3.732528687E-1,4.248589516E0
1.057899821E1,-4.282543659E-1,-1.609878540E-1,3.805162191E0
1.058852621E1,-3.423145115E-1,1.780757904E-1,3.420881748E0
1.059904421E1,-1.996608078E-1,4.284801483E-1,3.129499912E0
1.060800121E1,-1.564835906E-1,6.101026535E-1,2.930384874E0
1.061869521E1,-1.283497214E-1,7.988424301E-1,2.908653498E0
1.062862821E1,-8.766436577E-2,1.028080940E0,2.846541166E0
1.063872021E1,-6.579403579E-2,1.322452545E0,2.710224628E0
1.064802421E1,-6.119512022E-2,1.663075447E0,2.547628164E0
1.065800421E1,7.846251130E-3,1.970349312E0,2.386792183E0
1.066871221E1,5.746829510E-2,2.276731968E0,2.187511921E0
1.067821521E1,2.249085903E-2,2.584890366E0,1.978329659E0
1.068806121E1,4.859066010E-2,2.741189957E0,1.823924541E0
1.069843121E1,1.310215443E-1,2.778898716E0,1.637400150E0
1.070898621E1,2.501300573E-1,2.660817146E0,1.355490446E0
1.071850221E1,3.883532882E-1,2.459342957E0,9.374603033E-1
1.072799421E1,2.940785885E-1,2.469370842E0,-1.825571060E-2
1.073801321E1,1.064971983E-1,2.381505966E0,-1.926226616E-1
1.074795721E1,4.161619246E-1,1.790921688E0,-7.107257843E-3
1.075824121E1,6.448154449E-1,1.237068176E0,-2.170383930E-2
1.076807521E1,7.613217831E-1,9.853916168E-1,-2.098124027E-1
1.077818321E1,6.754673719E-1,9.295759201E-1,-4.939140081E-1
1.078807421E1,7.249216437E-1,8.952941895E-1,-8.829946518E-1
1.079820821E1,1.002116799E0,6.248912811E-1,-1.181718469E0
1.080806721E1,1.434608579E0,2.022447586E-1,-1.372531652E0
1.081796821E1,1.876294851E0,-1.851348877E-1,-1.438843250E0
1.082800521E1,2.233080626E0,-3.347091675E-1,-1.466095448E0
1.083840021E1,2.526977301E0,-3.284740448E-1,-1.438205719E0
1.084811421E1,2.642388821E0,-1.324758530E-1,-1.468513250E0
1.085862421E1,2.579212666E0,2.315788269E-1,-1.501255751E0
1.086806221E1,2.404255867E0,6.162662506E-1,-1.543043137E0
1.087818921E1,2.175537109E0,7.969093323E-1,-1.443455219E0
1.088813821E1,2.018334866E0,5.879364014E-1,-1.314253092E0
1.089804821E1,1.993153453E0,1.565933228E-2,-1.033102155E0
1.090811421E1,2.051334381E0,-3.657932281E-1,-8.217372298E-1
1.091839521E1,2.422813416E0,-7.111959457E-1,-9.353478551E-1
1.092798621E1,3.112426043E0,-1.487303734E0,-1.336211920E0
1.093798021E1,3.750539780E0,-2.479216576E0,-1.666323423E0
1.094796421E1,4.223587513E0,-3.507711411E0,-1.717380285E0
1.095812621E1,4.669611454E0,-4.294475555E0,-1.294267178E0
1.096801821E1,4.620864391E0,-5.016901970E0,-5.610638857E-1
1.097799521E1,4.760409832E0,-5.619889259E0,-7.941901684E-3
1.098804521E1,4.307987213E0,-5.869000435E0,2.191536427E-1
1.099830721E1,3.553391695E0,-5.715304375E0,2.534282207E-1
1.100808521E1,2.869234800E0,-5.328289032E0,1.794576049E-1
1.101807121E1,1.359802246E0,-4.571740150E0,2.201835513E-1
1.102794121E1,7.103652954E-1,-1.578324318E0,2.828074694E-1
1.103845821E1,7.645848393E-2,-1.022644043E-1,2.558668256E-1
1.104863721E1,-5.013390779E-1,7.812128067E-1,2.904003859E-1
1.105809921E1,-9.263788462E-1,1.271959305E0,4.864970446E-1
1.106805421E1,-1.325986624E0,1.556413651E0,7.125017643E-1
1.107808621E1,-1.621987700E0,1.576442719E0,9.281049967E-1
1.108817421E1,-1.655360103E0,1.262938499E0,1.224846959E0
1.109806721E1,-1.533719182E0,5.504636765E-1,1.519817114E0
1.110798021E1,-1.346628785E0,-7.168979645E-1,1.640966773E0
1.111856021E1,-1.165719509E0,-2.213191032E0,1.910032988E0
1.112837321E1,-1.678334832E0,-3.273209572E0,2.502161026E0
1.113810821E1,-3.201638222E0,-3.174957275E0,3.916500330E0
1.114853421E1,-5.792688847E0,-1.756119728E0,5.051219940E0
1.115824521E1,-7.057593346E0,-9.570178986E-1,5.398933411E0
1.116848121E1,-5.984852791E0,-1.014046669E0,4.580747128E0
1.117805421E1,-4.882972240E0,-5.321311951E-1,3.854915619E0
1.118802321E1,-4.350692749E0,5.217056274E-1,3.315775871E0
1.119811721E1,-3.729036093E0,1.421214104E0,2.776875973E0
1.120803621E1,-3.264525890E0,2.039697647E0,2.322273970E0
1.121814021E1,-2.926849127E0,2.548129559E0,2.069033146E0
1.122805021E1,-2.558940887E0,2.953479767E0,1.913258314E0
1.123834421E1,-2.146085024E0,3.219273567E0,1.851228833E0
1.124845521E1,-1.742106438E0,3.323675156E0,1.785442710E0
1.125802721E1,-9.913225174E-1,3.107796192E0,1.521126986E0
1.126796721E1,2.418911457E-2,2.600620747E0,9.110999107E-1
1.127807621E1,-2.872409225E-1,2.837713242E0,7.274217606E-1
1.128895621E1,-1.041643977E0,3.263316154E0,4.020304680E-1
1.129803121E1,-7.278913260E-1,3.222824097E0,5.208411217E-1
1.130797321E1,2.292509563E-2,2.848075867E0,4.764292240E-1
1.131813821E1,6.944634914E-1,2.513888359E0,3.081989288E-1
1.132857121E1,1.324806213E0,2.231070042E0,4.431676865E-2
1.133798421E1,1.536558986E0,2.241245270E0,2.980661392E-2
1.134799821E1,1.533820391E0,2.437596798E0,1.970610619E-1
1.135802421E1,1.462078810E0,2.543521881E0,2.618627548E-1
1.136802821E1,1.490146279E0,2.242208481E0,5.090110302E-1
1.137798921E1,1.480653167E0,1.666925430E0,8.636643887E-1
1.138802321E1,1.209309340E0,1.155621052E0,1.260021687E0
1.139797821E1,1.032672524E0,6.142454147E-1,1.624967337E0
1.140833821E1,1.204331636E0,1.008319855E-2,1.788172960E0
1.141803921E1,1.498911619E0,-4.989500046E-1,1.635254979E0
1.142798121E1,1.751395345E0,-8.017101288E-1,1.250824213E0
1.143820721E1,2.437762022E0,-7.510280609E-1,1.226047039E0
1.144800421E1,3.218984365E0,-6.203289032E-1,1.193840981E0
1.145798021E1,2.859781265E0,-1.088930130E0,2.914462090E-1
1.146791021E1,2.337302923E0,-1.555425644E0,-1.581391811E0
1.147795821E1,2.025313377E0,-2.112114906E0,-5.651078224E0
1.148807921E1,6.781926155E-1,-2.097487450E0,-9.965211868E0
1.149814121E1,-8.395598531E-1,-1.819854736E0,-1.315009785E1
1.150804221E1,-2.221593142E0,-1.375016212E0,-1.292604446E1
1.151800321E1,-2.475432396E0,-2.920770645E-1,-6.524186611E0
1.152809921E1,-1.245679021E0,6.277275085E-2,-4.129880905E0
1.153810121E1,4.962644875E-1,-7.593746185E-1,-2.847968578E0
1.154814621E1,1.202662587E0,-2.261232376E0,-1.373005629E0
1.155797621E1,1.323958397E0,-3.654679298E0,-9.330615997E-1
1.156806921E1,7.686408758E-1,-5.477130890E0,-4.003140926E-1
1.157833021E1,-1.425822973E-1,-5.664135933E0,1.498918533E-1
1.158826221E1,-5.816116929E-1,-5.516613960E0,4.283778667E-1
1.159807821E1,-9.535362720E-1,-5.012749672E0,1.109600782E0
1.160812621E1,-1.358866096E0,-4.631164551E0,3.006979942E0
1.161814321E1,-1.563740969E0,-3.761745453E0,5.082298279E0
1.162853021E1,-1.650694847E0,-1.756237984E0,4.036498070E0
1.163860921E1,-1.574815512E0,-5.027294159E-2,2.833640575E0
1.164812421E1,-1.014268041E0,1.104712486E0,2.816522121E0
1.165803421E1,-6.788972616E-1,1.989759445E0,2.717937946E0
1.166804221E1,-6.398618817E-1,2.501812458E0,2.733949661E0
1.167803421E1,-8.474418521E-1,2.715571880E0,2.908696651E0
1.168805421E1,-7.055993080E-1,2.179195881E0,3.008529186E0
1.169831221E1,-3.926993608E-1,1.048873901E0,3.204470634E0
1.170807021E1,-1.980649978E-1,-1.283035278E-1,3.415326357E0
1.171876221E1,3.035733104E-2,-1.148594856E0,3.563327789E0
1.172796321E1,2.321827114E-1,-1.915738106E0,3.705064058E0
1.173849421E1,2.061693519E-1,-2.227259636E0,3.952144146E0
1.174814321E1,-1.034751534E-3,-2.038778305E0,3.994876862E0
1.175800921E1,-7.916750014E-2,-1.447571754E0,3.891694784E0
1.176878821E1,2.295578271E-2,-5.951662064E-1,3.776934385E0
1.177806021E1,-7.634367794E-3,3.719758987E-1,3.592463017E0
1.178806721E1,3.205905110E-2,1.099798203E0,3.460594654E0
1.179805021E1,1.311255693E-1,1.588826180E0,3.261420488E0
1.180801721E1,1.565852314E-1,1.941786289E0,3.119015932E0
1.181801521E1,1.614844054E-1,2.222267628E0,2.941949606E0
1.182796321E1,5.912511796E-2,2.411673546E0,2.807482243E0
1.183803521E1,-7.395875454E-2,2.505140781E0,2.642633438E0
1.184798721E1,-2.282718718E-1,2.490706444E0,2.480689287E0
1.185823021E1,-2.887521386E-1,2.367089748E0,2.283186913E0
1.186803921E1,-2.731630802E-1,2.213431358E0,2.035118103E0
1.187802721E1,-2.832658887E-1,2.063030720E0,1.913250685E0
1.188862521E1,-3.588660061E-1,2.087383270E0,1.741591096E0
1.189802721E1,-4.007831514E-1,2.131095886E0,1.508095741E0
1.190798421E1,-3.121383786E-1,2.120064259E0,1.178110361E0
1.191792921E1,-1.192458272E-1,1.947024345E0,8.938024044E-1
1.192793921E1,1.051310003E-1,1.647368908E0,3.387813568E-1
1.193827321E1,3.884755969E-1,1.343235970E0,-3.893446922E-2
1.194822121E1,7.827731371E-1,1.135119438E0,-1.679248810E-1
1.195815721E1,1.085878253E0,7.863426208E-1,-3.504389524E-1
1.196801021E1,1.276858687E0,5.288009644E-1,-4.662526846E-1
1.197821521E1,1.494645119E0,3.290901184E-1,-7.009475231E-1
1.198852921E1,1.698696136E0,2.021131516E-1,-9.386988878E-1
1.199857621E1,1.909947634E0,3.567886353E-2,-9.787737727E-1
1.200844821E1,2.058433294E0,-1.162433624E-1,-1.143687844E0
1.201795621E1,2.189679861E0,-2.277975082E-1,-1.435885072E0
1.202882921E1,2.255887032E0,-2.564973831E-1,-1.728169918E0
1.203823721E1,2.289746046E0,-3.072834015E-1,-2.238043070E0
1.204816221E1,2.267513514E0,-3.624658585E-1,-2.818072557E0
1.205848321E1,2.244464636E0,-3.807649612E-1,-3.379701614E0
1.206820321E1,2.222007513E0,-4.574718475E-1,-3.783067226E0
1.207822021E1,2.305756092E0,-6.759166718E-1,-3.907534361E0
1.209089921E1,3.069352627E0,-8.836202621E-1,-3.698488235E0
1.210802021E1,3.787100554E0,-2.122124672E0,-2.818590879E0
1.211796621E1,3.869722605E0,-3.077239037E0,-2.186422825E0
1.212804421E1,3.746882200E0,-3.884925842E0,-1.440692186E0
1.213809721E1,3.323929310E0,-4.314109802E0,-6.775059104E-1
1.214800221E1,3.085011721E0,-4.940851212E0,-1.804389656E-1
1.215808921E1,2.917492628E0,-5.790875435E0,2.304699719E-1
1.216817821E1,2.716908216E0,-6.007921219E0,4.837514758E-1
1.217800321E1,2.175786018E0,-5.889762878E0,6.305384040E-1
1.218802721E1,1.665330291E0,-5.277170181E0,7.547376156E-1
1.219800621E1,8.391857147E-1,-3.709838867E0,8.382219672E-1
1.220803521E1,9.617446363E-2,-1.726722717E0,7.552408576E-1
1.221804221E1,-5.029299259E-1,-3.637990952E-1,6.139047146E-1
1.222799021E1,-9.438002110E-1,3.010416031E-1,7.371832132E-1
1.223868221E1,-1.252575636E0,6.364736557E-1,1.169114590E0
1.224802921E1,-1.616307974E0,8.374614716E-1,1.544089437E0
1.225868621E1,-1.688205361E0,8.187580109E-1,1.874228597E0
1.226794721E1,-1.473881841E0,1.596345901E-1,2.104451656E0
1.227892121E1,-1.312691212E0,-9.232635498E-1,2.271124125E0
1.228800921E1,-1.808088064E0,-1.847755432E0,2.586009741E0
1.229852021E1,-3.029256582E0,-1.996431351E0,3.890765429E0
1.230804021E1,-4.665412903E0,-1.033100128E0,5.011704445E0
1.231791721E1,-4.788087368E0,-7.580547333E-1,5.442457199E0
1.232863221E1,-3.443213463E0,-1.081901550E0,5.257798195E0
1.233809521E1,-2.183378935E0,-9.486036301E-1,4.670633793E0
1.234803221E1,-1.539172888E0,-3.743314743E-1,4.122640610E0
1.235832521E1,-1.268475771E0,3.873796463E-1,3.672703028E0
1.236797321E1,-1.024516225E0,1.095552444E0,3.319996834E0
1.237796421E1,-8.351891637E-1,1.820709229E0,3.032901764E0
1.238796921E1,-6.624006629E-1,2.399106979E0,2.856696367E0
1.239834821E1,-5.587615967E-1,2.933684826E0,2.606731415E0
1.240870521E1,-3.099176288E-1,3.205625534E0,2.434072018E0
1.241803621E1,2.994765341E-2,3.255770683E0,2.224296331E0
1.242886121E1,6.775569916E-1,2.979274750E0,1.490058661E0
1.243817721E1,6.942230463E-1,2.949350357E0,9.659678936E-1
1.244819021E1,1.420484483E-1,3.188915253E0,1.212521076E0
1.245798821E1,2.063135654E-1,3.009040833E0,1.150947571E0
1.246803321E1,5.889461040E-1,2.616365910E0,8.931694031E-1
1.247820821E1,9.746108055E-1,2.216763020E0,8.990759850E-1
1.248853221E1,1.759369135E0,2.022459507E0,1.354515553E0
1.249816721E1,2.266928434E0,1.742914200E0,1.339445353E0
1.250819421E1,2.012284994E0,1.422544003E0,8.613040447E-1
1.251799121E1,1.412631035E0,1.498350620E0,7.808430195E-1
1.252936021E1,8.790854216E-1,1.723199844E0,1.380877495E0
1.253808621E1,7.273903489E-1,1.758442879E0,1.930932403E0
1.254801221E1,7.814037800E-1,1.695758820E0,2.208962679E0
1.255805721E1,9.006331563E-1,1.240598202E0,2.409755945E0
1.256812621E1,9.574333429E-1,5.831727982E-1,2.465479851E0
1.257805421E1,1.018140197E0,5.896568298E-3,2.290629148E0
1.258795121E1,1.090467215E0,-4.718418121E-1,1.957580805E0
1.259795921E1,1.073438048E0,-5.884170532E-1,1.672010303E0
1.260857521E1,1.287006855E0,-1.522054672E-1,1.405790925E0
1.261816521E1,1.298495054E0,-1.216487885E-1,1.409914494E-1
1.262807021E1,1.460918069E0,-1.248464584E0,-4.523601532E0
1.263816521E1,5.899116397E-1,-2.521835327E0,-1.128386307E1
1.264812321E1,-1.249921322E-1,-2.581282616E0,-1.433268738E1
1.265795421E1,-1.207259893E0,-2.007373810E0,-1.326335049E1
1.266796321E1,-1.459494233E0,-9.445543289E-1,-7.988956451E0
1.267795421E1,-5.359200239E-1,3.464746475E-1,-3.193443060E0
1.268798521E1,1.120170712E0,2.266569138E-1,-1.862920761E0
1.269819621E1,1.718844652E0,-1.288050652E0,-1.427362204E0
1.270807321E1,1.681398869E0,-2.946236610E0,-1.004499197E0
1.271832821E1,1.509955525E0,-4.450390816E0,-4.910392761E-1
1.272804121E1,9.223508835E-1,-5.754244804E0,5.329537392E-1
1.273842721E1,1.397188902E-1,-6.501877785E0,1.071938753E0
1.274813221E1,-3.740469813E-1,-6.806730270E0,1.405713320E0
1.275808421E1,-3.489445150E-1,-6.633235931E0,2.280923843E0
1.276832221E1,-2.109527886E-1,-5.633186340E0,3.994450808E0
1.277805621E1,-4.750976562E-1,-3.811568260E0,6.154304504E0
1.278811121E1,-8.362543583E-1,-1.532588959E0,5.633532047E0
1.279797921E1,-1.348354697E0,1.871299744E-1,3.713897705E0
1.280805021E1,-9.520268440E-1,9.470643997E-1,2.831365108E0
1.281799821E1,-5.690085888E-1,1.143731117E0,2.592093468E0
1.282806721E1,-5.861530304E-1,1.301639557E0,2.879251957E0
1.283801621E1,-6.313149333E-1,1.426041603E0,3.226771355E0
1.284793121E1,-2.766958475E-1,1.080549240E0,3.517508984E0
1.285827921E1,1.834057271E-1,2.868251801E-1,3.850391865E0
1.286809621E1,5.561413169E-1,-6.032838821E-1,4.072127342E0
1.287798321E1,8.087339401E-1,-1.379032135E0,4.260363102E0
1.288799321E1,8.363099098E-1,-1.826705933E0,4.362601757E0
1.289827121E1,7.498508692E-1,-1.846306801E0,4.265211105E0
1.290814721E1,5.445496440E-1,-1.349331856E0,4.014687538E0
1.291798821E1,4.489744902E-1,-5.838775635E-1,3.549809694E0
1.292803421E1,4.025786221E-1,8.749485016E-2,3.171025038E0
1.293908621E1,3.330927193E-1,6.088886261E-1,3.019086599E0
1.294887921E1,2.967088819E-1,9.662437439E-1,2.918726683E0
1.295826721E1,1.537606716E-1,1.249066353E0,2.901983500E0
1.296794621E1,4.279360175E-2,1.461998940E0,2.792511702E0
1.297806921E1,-1.791399717E-2,1.673809528E0,2.635167360E0
1.298800421E1,-4.682987928E-2,1.864577293E0,2.494385719E0
1.299817321E1,-3.874427080E-2,2.038799286E0,2.368391514E0
1.300929121E1,-7.296818495E-2,2.264340401E0,2.292158842E0
1.301815221E1,-9.074354172E-2,2.434295654E0,2.209955692E0
1.302807921E1,-8.304607868E-2,2.534009933E0,2.177092791E0
1.303810021E1,-3.906768560E-2,2.557559967E0,2.175492764E0
1.304800521E1,-2.299159765E-2,2.495478630E0,2.080516815E0
1.305799621E1,3.104537725E-2,2.354097843E0,1.816302538E0
1.306806721E1,1.198658347E-1,2.151940346E0,1.421126962E0
1.307822521E1,1.904265881E-1,1.949659348E0,5.866097212E-1
1.308913721E1,2.573281527E-1,1.629228115E0,2.503335476E-2
1.309801921E1,6.286951303E-1,1.029992104E0,-1.547002792E-2
1.310929321E1,1.138479233E0,1.584501266E-1,-2.818564177E-1
1.311802621E1,1.145593882E0,1.889677048E-1,-4.907243252E-1
1.312816321E1,1.231150150E0,1.055612564E-1,-9.040635824E-1
1.313883921E1,1.868687987E0,-2.783708572E-1,-1.038769007E0
1.314807121E1,1.871456861E0,-2.642145157E-1,-1.200512171E0
1.315810221E1,2.241850138E0,-4.128408432E-1,-1.329147339E0
1.316802521E1,2.545355320E0,5.808734894E-2,-1.683020949E0
1.317836521E1,2.455905676E0,2.740192413E-1,-2.211030483E0
1.318839721E1,2.247427940E0,2.215461731E-1,-2.714032173E0
1.319798821E1,2.143182278E0,-1.569757462E-1,-3.075297594E0
1.320990321E1,2.172249317E0,-9.076843262E-1,-3.037608385E0
1.321810821E1,2.123047352E0,-1.204197884E0,-2.954908848E0
1.322822121E1,2.092040300E0,-1.137980461E0,-2.826730967E0
1.323804121E1,2.416611910E0,-1.091230392E0,-2.777457714E0
1.324805321E1,3.163130045E0,-1.769508362E0,-2.774713278E0
1.325833621E1,3.724709272E0,-2.616716385E0,-2.604947090E0
1.326794221E1,4.081319809E0,-3.434725761E0,-2.169147730E0
1.327807421E1,4.325195312E0,-4.156091690E0,-1.483677983E0
1.328792321E1,4.376342773E0,-4.724420547E0,-7.034597993E-1
1.329832921E1,4.192180634E0,-4.996299744E0,5.645304918E-3
1.330807721E1,3.725809813E0,-4.893806458E0,4.563952982E-1
1.331807021E1,3.191919088E0,-4.811011314E0,7.330237627E-1
1.332795321E1,2.796179771E0,-4.887080193E0,8.991881609E-1
1.333820221E1,2.331221581E0,-4.729213715E0,1.006108284E0
1.334821821E1,1.357512236E0,-3.720537186E0,1.084762812E0
1.335803221E1,4.884263873E-1,-2.272647858E0,9.856599569E-1
1.336795521E1,-1.859530807E-1,-6.914882660E-1,8.427028656E-1
1.337797121E1,-6.638574600E-1,4.060573578E-1,8.338684440E-1
1.338842921E1,-8.550116420E-1,1.190418243E0,9.905682206E-1
1.339932321E1,-9.919974804E-1,1.583488464E0,1.224599600E0
1.340815621E1,-1.083475590E0,1.654863834E0,1.518809915E0
1.341846821E1,-1.024863839E0,1.101095200E0,1.560161352E0
1.342810721E1,-8.169814348E-1,-3.632354736E-2,1.424292207E0
1.343805421E1,-1.164437294E0,-9.835252762E-1,1.957533598E0
1.344801621E1,-2.440170527E0,-1.325808525E0,3.071977139E0
1.345826721E1,-4.580760956E0,-6.444149017E-1,4.472515106E0
1.346799621E1,-5.607161522E0,-4.824390411E-1,5.387266159E0
1.347810821E1,-4.904768467E0,-1.294621468E0,5.821248055E0
1.348797321E1,-3.602155447E0,-1.565380096E0,5.514334202E0
1.349802421E1,-2.663717747E0,-7.885665894E-1,4.909168243E0
1.350822121E1,-1.977164149E0,-5.442619324E-3,4.229327679E0
1.351816021E1,-1.543080449E0,6.953678131E-1,3.603298187E0
1.352840721E1,-1.155410290E0,1.134381294E0,3.110094786E0
1.353794921E1,-8.875735998E-1,1.597119808E0,2.827725172E0
1.354976121E1,-5.863432884E-1,1.976962566E0,2.637472868E0
1.355803921E1,-3.164368868E-1,2.266334057E0,2.517428875E0
1.356811421E1,9.567862749E-2,2.426908016E0,2.316799402E0
1.357818021E1,7.181720734E-1,2.455711842E0,1.933969021E0
1.358797521E1,1.255403161E0,2.453604221E0,1.718588352E0
1.359936621E1,2.052549601E0,2.730051041E0,2.478831768E0
1.360804821E1,1.100574017E0,2.500102997E0,6.900784969E-1
1.361808021E1,7.305416465E-1,2.224103451E0,-1.732525110E0
1.362802321E1,1.130180955E0,1.998103142E0,-2.257246494E0
1.363806721E1,1.385596514E0,1.850614548E0,-2.439777851E0
1.364803921E1,1.158104181E0,2.132061481E0,-2.053108215E0
1.365814621E1,8.243377805E-1,2.579673767E0,-1.017934322E0
1.366796021E1,8.132836223E-1,2.579423428E0,8.086919785E-3
1.367837521E1,1.011755347E0,2.053090096E0,8.288252354E-1
1.368808621E1,8.423159122E-1,1.722488403E0,1.496443987E0
1.369832021E1,6.206851006E-1,1.355383396E0,2.454933643E0
1.371617621E1,5.493003726E-1,1.016471863E0,2.822117329E0
1.372817221E1,7.384262085E-1,1.124267578E-1,2.823572636E0
1.373879821E1,9.712629318E-1,-1.909103394E-1,2.469557047E0
1.374799021E1,1.232937098E0,-2.777767181E-1,2.126207829E0
1.375805121E1,1.486954212E0,-1.445455551E-1,1.981584072E0
1.376885921E1,1.781722426E0,-2.995586395E-2,1.783343673E0
1.377847821E1,2.073900700E0,-7.034015656E-2,8.197860718E-1
1.378878821E1,2.633833170E0,-7.720632553E-1,-1.747550249E0
1.379880121E1,3.144513130E0,-2.075680733E0,-7.161984444E0
1.380804621E1,2.086053371E0,-2.288315773E0,-1.046485519E1
1.381835821E1,8.073144555E-1,-1.892643929E0,-1.134487629E1
1.382818321E1,5.394386053E-1,-1.152883530E0,-9.497308731E0
1.383819421E1,1.319331408E0,-4.603452682E-1,-6.274194717E0
1.385014021E1,2.233916044E0,-8.265590668E-2,-3.758702755E0
1.385845921E1,2.904039383E0,-9.124221802E-1,-2.877266407E0
1.386805821E1,3.201354027E0,-2.266036987E0,-3.047579527E0
1.387846721E1,3.017065287E0,-3.368931770E0,-2.447367430E0
1.388814721E1,2.195854187E0,-4.199719429E0,-4.266612530E-1
1.389805121E1,1.152272940E0,-4.940963745E0,6.780314445E-1
1.390839121E1,6.338862181E-1,-5.411806107E0,8.174142838E-1
1.391809421E1,1.378802359E-1,-5.740119934E0,1.467876554E0
1.392817221E1,-4.663722217E-1,-5.692553520E0,2.739725351E0
1.393830221E1,-1.041905880E0,-4.926394463E0,3.778728962E0
1.394806321E1,-1.773827553E0,-3.500815392E0,4.355851173E0
1.395801621E1,-2.629703045E0,-1.898412704E0,4.599228382E0
1.396836821E1,-3.436651945E0,-6.385746002E-1,6.857629776E0
1.397808321E1,-3.519335508E0,7.731637955E-1,5.802931309E0
1.398813121E1,-2.874903917E0,1.632851124E0,3.306474209E0
1.399814221E1,-2.247682333E0,1.930348873E0,2.238701344E0
1.401018521E1,-2.062290430E0,2.128838539E0,2.691805840E0
1.402314271E1,-1.346658707E0,5.190753937E-1,3.550461769E0
1.403796321E1,-6.269619465E-1,-1.014104843E0,3.937728167E0
1.404896521E1,5.294600129E-2,-2.398021698E0,4.187309265E0
1.405836421E1,4.091650546E-1,-3.144485474E0,4.405560493E0
1.406798921E1,3.375707269E-1,-2.910816193E0,4.340748310E0
1.407811421E1,6.552228332E-2,-1.750313759E0,3.775742531E0
1.408803121E1,5.450549722E-2,-4.749736786E-1,3.099489212E0
1.409812921E1,1.251531541E-1,4.236383438E-1,2.572358131E0
1.410800521E1,1.573924571E-1,9.895200729E-1,2.307850122E0
1.411801021E1,2.276934832E-1,1.274771690E0,2.217092276E0
1.412852421E1,1.893015057E-1,1.482455254E0,2.125161648E0
1.413808321E1,3.475657105E-2,1.732275963E0,2.066634417E0
1.414835921E1,-1.081652045E-1,1.964997768E0,2.014784336E0
1.415859121E1,-2.560857534E-1,2.194236755E0,1.908945560E0
1.416814621E1,-3.846078217E-1,2.375122070E0,1.740363002E0
1.417825021E1,-5.127388239E-1,2.534605026E0,1.587273359E0
1.418795221E1,-6.985541582E-1,2.587420464E0,1.460698128E0
1.419801321E1,-8.359057903E-1,2.538575172E0,1.238863707E0
1.420822121E1,-1.117341399E0,2.453223228E0,8.533487320E-1
1.421806221E1,-1.480016232E0,2.643696785E0,7.441010475E-1
1.422832321E1,-1.042113423E0,2.049745560E0,2.687175274E-1
1.423796221E1,-8.331682086E-1,1.760076523E0,-4.139697552E-2
1.424800821E1,-8.601204753E-1,1.702503204E0,-2.855746746E-1
1.425789621E1,-9.873977304E-1,1.702095032E0,-5.920219421E-1
1.426794321E1,-8.424029946E-1,1.720684052E0,-1.028673172E0
1.427801021E1,-1.080412865E-1,1.271296501E0,-1.527377248E0
1.428792521E1,7.503615618E-1,7.409210205E-1,-2.110683441E0
1.429810721E1,1.376063585E0,4.066658020E-1,-2.511812687E0
1.430789721E1,1.735741854E0,3.191652298E-1,-2.718565941E0
1.431812921E1,1.980894804E0,3.822612762E-1,-2.795084953E0
1.432859121E1,2.233353853E0,4.215536118E-1,-2.733050823E0
1.433819921E1,2.428143978E0,3.788614273E-1,-2.588771582E0
1.434841521E1,2.598827362E0,2.783908844E-1,-2.395830870E0
1.435796521E1,2.676528931E0,2.004528046E-1,-2.081376553E0
1.436821821E1,2.560496330E0,1.259193420E-1,-1.709046721E0
1.437821021E1,2.355926037E0,-7.550239563E-3,-1.248466372E0
1.438804721E1,2.145049810E0,-2.681398392E-1,-7.159943581E-1
1.439799621E1,2.017473459E0,-5.741977692E-1,-2.699024081E-1
1.440806121E1,2.082401752E0,-1.001221657E0,-8.355155587E-2
1.441810321E1,2.417553425E0,-1.566125870E0,-1.411181688E-1
1.442799421E1,2.822643518E0,-2.246149063E0,-2.445844114E-1
1.443790121E1,3.198470116E0,-2.949958801E0,-3.708914518E-1
1.444801921E1,3.472289562E0,-3.578543663E0,-4.537573457E-1
1.445926921E1,3.701956272E0,-4.121875763E0,-4.100619853E-1
1.446838221E1,3.956562042E0,-4.846094131E0,-2.782183588E-1
1.447834321E1,4.047741890E0,-5.415893555E0,-6.357726455E-2
1.448793821E1,3.733068705E0,-5.408297539E0,1.230518222E-1
1.449909421E1,3.119879007E0,-5.027594566E0,1.288549304E-1
1.450808721E1,2.519582033E0,-4.723477364E0,3.059387207E-2
1.451864421E1,1.628564835E0,-4.041442871E0,-7.655715942E-2
1.452862121E1,6.366171241E-1,-2.819294930E0,-1.526408792E-1
1.453861021E1,-1.239335239E-1,-1.609208107E0,-7.574760914E-2
1.454805521E1,-5.647156835E-1,-6.327438354E-1,6.583291292E-2
1.455887721E1,-8.585726023E-1,1.432704926E-1,3.340473175E-1
1.456800421E1,-9.746856689E-1,6.415128708E-1,7.776970863E-1
1.457846821E1,-9.452715516E-1,8.274393082E-1,1.239631772E0
1.458796021E1,-8.344842196E-1,5.256357193E-1,1.538035512E0
1.459831621E1,-7.750239968E-1,-2.933235168E-1,1.699628353E0
1.460847621E1,-1.059239268E0,-1.066387177E0,1.869546652E0
1.461808121E1,-1.811231136E0,-1.510255814E0,2.649551153E0
1.462802521E1,-3.133867741E0,-1.179509163E0,3.699947596E0
1.463800221E1,-4.129213333E0,-9.229545593E-1,4.257236481E0
1.464794321E1,-4.304959297E0,-9.726428986E-1,4.264653683E0
1.465827621E1,-3.942736387E0,-9.537696838E-1,4.036584854E0
1.466816921E1,-3.401891232E0,-4.937219620E-1,3.648790359E0
1.467813221E1,-2.777037382E0,9.919548035E-2,3.169551373E0
1.468795021E1,-2.208195210E0,6.384153366E-1,2.804067373E0
1.469800321E1,-1.768988252E0,1.144699097E0,2.478617668E0
1.470805121E1,-1.413925409E0,1.628779411E0,2.222542763E0
1.471803121E1,-1.057628632E0,2.081640244E0,2.005903959E0
1.472792621E1,-5.317968130E-1,2.426512718E0,1.661165118E0
1.473792421E1,-2.777230144E-1,2.800625801E0,1.251896262E0
1.474872021E1,8.183628321E-2,3.247272491E0,-2.331840992E-1
1.475800921E1,1.298670173E-1,3.221251488E0,-1.587836742E-1
1.476796121E1,-1.543380618E-1,3.718311310E0,-2.646245956E-1
1.477810121E1,-4.886626601E-1,4.268301010E0,7.616379261E-1
1.478798021E1,1.167173386E-1,3.643294334E0,1.050863981E0
1.479864921E1,7.471452355E-1,3.027041435E0,1.562473178E0
1.480839621E1,1.903763294E0,2.637557507E0,2.991489649E0
1.481814221E1,1.625989199E0,1.925526619E0,1.621219397E0
1.482807121E1,1.225667596E0,1.660603523E0,3.667290211E-1
1.483820821E1,1.094478011E0,1.541346073E0,9.190602303E-1
1.484802421E1,9.749481082E-1,1.356835365E0,1.555254221E0
1.485819021E1,9.171472788E-1,1.088284492E0,1.991148829E0
1.486818821E1,9.591899514E-1,7.728300095E-1,2.164862156E0
1.487812221E1,1.046213865E0,5.001726151E-1,2.356214762E0
1.488797321E1,1.032100558E0,3.089723587E-1,2.581397772E0
1.489826721E1,1.140653849E0,-4.593849182E-3,2.693783760E0
1.490844621E1,1.332160234E0,-3.380832672E-1,2.568687916E0
1.491798221E1,1.532667637E0,-6.003398895E-1,2.272558451E0
1.492803121E1,1.807303429E0,-6.524610519E-1,1.865825415E0
1.493817021E1,2.190591097E0,-5.629644394E-1,1.161282420E0
1.494873521E1,2.667957067E0,-3.754644394E-1,-5.463843346E-1
1.495807921E1,3.518285275E0,-1.838407516E-1,-4.964677334E0
1.496802721E1,4.147130489E0,-8.703374863E-1,-1.022089577E1
1.497831821E1,3.372054338E0,-1.636611938E0,-1.294446945E1
1.498874421E1,1.969146967E0,-1.249191284E0,-1.056891823E1
1.499801821E1,1.188458085E0,-7.465248108E-1,-6.567988396E0
1.501092221E1,1.204783440E0,-9.114532471E-1,-3.284733057E0
1.502836421E1,2.817599297E0,-1.805794716E0,-2.685558796E0
1.503805521E1,2.881712914E0,-2.430811882E0,-3.260802031E0
1.504801721E1,2.477983952E0,-3.327228546E0,-2.934303999E0
1.505801821E1,1.640018225E0,-4.195155144E0,-1.627763748E0
1.506817421E1,7.254203558E-1,-4.558952332E0,-1.649174690E-1
1.507814821E1,1.700894237E-1,-4.866783142E0,7.135457993E-1
1.508808121E1,-1.495698094E-1,-5.551411629E0,1.098130107E0
1.509834621E1,-5.657359362E-1,-6.175668716E0,2.279324532E0
1.511067621E1,-1.378480315E0,-5.938969612E0,3.593665123E0
1.512802721E1,-4.127481937E0,-2.273819923E0,5.935779572E0
1.513840121E1,-3.727857113E0,-1.979026794E-1,3.127024412E0
1.514810221E1,-2.738552094E0,9.629583359E-1,1.866050482E0
1.515807021E1,-1.789108753E0,1.246409416E0,2.026201725E0
1.516794121E1,-1.926332593E0,1.744240284E0,2.674540758E0
1.517877121E1,-2.477705240E0,2.009467125E0,3.150806189E0
1.518794621E1,-2.419646025E0,1.178885460E0,3.510245323E0
1.519869221E1,-2.003092289E0,-2.079515457E-1,3.830882788E0
1.520794921E1,-1.561676145E0,-1.446152687E0,3.949602604E0
1.521882821E1,-1.178300619E0,-2.295703888E0,4.028011799E0
1.522865721E1,-1.031165957E0,-2.517953873E0,4.165078640E0
1.523873821E1,-1.054129958E0,-2.064979553E0,4.146462440E0
1.524802121E1,-1.083062768E0,-1.141668320E0,3.811327457E0
1.526022321E1,-8.583707213E-1,4.186067581E-1,2.902424812E0
1.527798921E1,-7.131705284E-1,1.022425652E0,2.621059895E0
1.528797621E1,-6.480456591E-1,1.508762360E0,2.418902874E0
1.529844921E1,-5.687526464E-1,2.304665565E0,1.990585685E0
1.530803121E1,-5.586786866E-1,2.720927238E0,1.846087933E0
1.531791721E1,-5.580655932E-1,3.058537960E0,1.700500011E0
1.532792321E1,-6.108946800E-1,3.307737827E0,1.565827727E0
1.533804521E1,-6.615671515E-1,3.427492619E0,1.467167377E0
1.534797921E1,-7.203416824E-1,3.411927700E0,1.399647474E0
1.536006421E1,-7.698284984E-1,3.302953243E0,1.302562714E0
1.537797621E1,-1.015612602E0,3.020810127E0,5.759352446E-1
1.538792321E1,-6.441817284E-1,2.349751472E0,2.927057743E-1
1.539803621E1,-2.121239007E-1,1.696322441E0,-7.532727718E-2
1.540810921E1,3.830751777E-2,1.300932884E0,-3.601151705E-1
1.541802821E1,2.050082088E-1,1.141800880E0,-5.837397575E-1
1.542835421E1,4.710077345E-1,1.035475731E0,-7.973703146E-1
1.543794021E1,9.384341240E-1,8.965053558E-1,-1.149687886E0
1.544800221E1,1.409878492E0,7.464075089E-1,-1.666735053E0
1.545797421E1,1.656911373E0,6.340932846E-1,-2.158891916E0
1.546792821E1,1.783078790E0,5.790395737E-1,-2.609942913E0
1.547824221E1,1.865314960E0,5.650978088E-1,-2.964601040E0
1.548798921E1,2.011086941E0,5.487604141E-1,-3.302960873E0
1.549799821E1,2.194828033E0,5.091505051E-1,-3.470669746E0
1.551047721E1,2.391860485E0,4.385557175E-1,-3.470630169E0
1.552807221E1,2.619256020E0,1.110553741E-2,-2.785906315E0
1.553801021E1,2.728942156E0,-4.662714005E-1,-2.273143768E0
1.554810121E1,2.499875546E0,-7.995214462E-1,-1.631502271E0
1.555804221E1,2.168141603E0,-8.626375198E-1,-1.141411662E0
1.556798621E1,2.067916632E0,-1.045828819E0,-7.494377494E-1
1.557803321E1,2.293515205E0,-1.588548660E0,-5.541296601E-1
1.558798621E1,2.821284771E0,-2.487451553E0,-5.541624427E-1
1.559861521E1,3.224102497E0,-3.441589355E0,-5.608312488E-1
1.560806421E1,3.491637468E0,-4.364310265E0,-4.308463931E-1
1.561796421E1,3.650568485E0,-5.086525917E0,-5.170738697E-2
1.562802821E1,3.738552094E0,-5.883599281E0,3.052104414E-1
1.563803321E1,3.586018085E0,-6.539090157E0,5.009884834E-1
1.564802221E1,3.039747238E0,-6.869050980E0,4.153226614E-1
1.565802821E1,2.253368855E0,-6.939859390E0,9.946867079E-2
1.566790721E1,1.274142265E0,-6.497061729E0,-3.020902574E-1
1.567804821E1,8.993161470E-2,-4.861192703E0,-4.249199629E-1
1.568809021E1,-8.193176389E-1,-2.645644188E0,-3.995768130E-1
1.569798921E1,-1.343504786E0,-7.141599655E-1,-2.689431906E-1
1.570853821E1,-1.471429825E0,4.676170349E-1,4.513680935E-3
1.571861621E1,-1.287104368E0,9.609851837E-1,4.038298130E-1
1.572805821E1,-1.031717420E0,9.827480316E-1,8.825708032E-1
1.573826821E1,-1.040638924E0,8.537311554E-1,1.376246333E0
1.574802721E1,-1.242911339E0,6.134395599E-1,1.535198808E0
1.576121521E1,-1.691818953E0,9.909439087E-2,1.851863027E0
1.577836421E1,-3.165877104E0,-5.956096649E-1,3.403047323E0
1.578813021E1,-3.840838194E0,-8.517160416E-1,3.767007351E0
1.579835921E1,-4.119372368E0,-1.164997101E0,3.838695526E0
1.580806621E1,-4.123017788E0,-1.349995613E0,3.696309566E0
1.581822621E1,-3.902589560E0,-1.256107330E0,3.390090227E0
1.582833421E1,-2.880228519E0,-1.128902435E-1,2.659071445E0
1.583800421E1,-2.886789322E0,-1.183767319E-1,2.384169579E0
1.584886221E1,-2.028672934E0,1.241046906E0,2.208003521E0
1.585820421E1,-1.781505227E0,1.945674419E0,2.175971508E0
1.586799621E1,-1.507223606E0,2.565044880E0,2.120433807E0
1.587823021E1,-1.028984785E0,3.007023335E0,1.973794222E0
1.588811921E1,-3.242088556E-1,3.172145844E0,1.513426065E0
1.589800721E1,3.459530771E-1,3.109298229E0,5.723695755E-1
1.590826121E1,-7.954629660E-1,4.222911358E0,5.388643742E-1
1.591798821E1,-1.670506597E0,5.098452091E0,6.733798981E-1
1.592822721E1,-1.254617214E0,5.029603481E0,4.635317326E-1
1.593801721E1,-6.678077579E-1,4.671391487E0,5.032522678E-1
1.594803621E1,-3.914113641E-1,4.387566090E0,7.546668053E-1
1.595838021E1,-2.165630311E-1,4.033937454E0,1.067037106E0
1.596846521E1,-1.148146391E-2,3.549440861E0,1.480328560E0
1.597810421E1,1.171077937E-1,3.005859375E0,2.081376076E0
1.598823221E1,1.959220916E-1,2.342509747E0,3.315053940E0
1.599830621E1,3.118839264E-1,1.631895542E0,3.661044121E0
1.600813821E1,4.034107029E-1,6.803178787E-1,2.847960949E0
1.601801921E1,6.175935268E-1,-1.814832687E-1,2.458903551E0
1.602793721E1,8.087214231E-1,-7.176465988E-1,2.716227055E0
1.603810621E1,8.977373838E-1,-9.965658188E-1,2.900234699E0
1.604816721E1,9.715951681E-1,-1.089592934E0,2.920366764E0
1.605843221E1,1.079137087E0,-1.019078255E0,2.837531090E0
1.606817021E1,1.297337890E0,-8.815011978E-1,2.637003422E0
1.607849921E1,1.499056101E0,-7.436933517E-1,2.367955446E0
1.608810221E1,1.802556872E0,-6.050052643E-1,1.769236207E0
1.609800621E1,2.328998089E0,-5.318202972E-1,-3.453230858E-2
1.610818221E1,3.383079052E0,-8.558559418E-1,-4.353815556E0
1.611801021E1,4.935560226E0,-2.203988075E0,-1.149314880E1
1.612850621E1,3.804579973E0,-2.814821243E0,-1.422329044E1
1.613858621E1,1.695371151E0,-2.362060547E0,-1.274683762E1
1.614800121E1,1.690235376E0,-1.667296410E0,-9.073150635E0
1.615803821E1,1.713367701E0,-1.704685211E0,-6.031391621E0
1.616801921E1,1.664098263E0,-1.582715988E0,-4.014447212E0
1.617811321E1,2.454633951E0,-1.713059425E0,-2.899997950E0
1.618801421E1,2.878977776E0,-2.644025803E0,-2.465224266E0
1.619820621E1,2.861456394E0,-3.851428986E0,-1.137639046E0
1.621103821E1,2.300518990E0,-4.758398056E0,6.274619102E-1
1.622833021E1,1.096714735E0,-6.321591377E0,2.477372169E0
1.623806421E1,7.708209753E-1,-7.062073708E0,3.522961378E0
1.624835121E1,2.780570686E-1,-6.945743561E0,4.497905731E0
1.625847821E1,-6.587257981E-1,-5.081903458E0,4.875744820E0
1.626801121E1,-1.259928226E0,-2.556718826E0,4.172030926E0
1.627798021E1,-1.592527390E0,-4.637145996E-1,2.939449787E0
1.628799121E1,-1.375891209E0,1.002795219E0,2.029994726E0
1.629810521E1,-1.124773502E0,2.146717072E0,1.355293512E0
1.630839321E1,-9.349960089E-1,2.946156025E0,9.423083067E-1
1.631793521E1,-8.229717612E-1,3.474106789E0,7.300188541E-1
1.632807221E1,-9.623957276E-1,3.736758709E0,5.068938732E-1
1.633805221E1,-1.392729282E0,3.646917343E0,2.850595713E-1
1.634839521E1,-1.827420235E0,3.116002083E0,1.980220079E-1
1.635801221E1,-2.192888021E0,2.118211269E0,5.248545408E-1
1.636796921E1,-2.572316408E0,9.125146866E-1,9.764362574E-1
1.637840821E1,-2.897551298E0,-1.399651527E0,2.433918953E0
1.638806621E1,-2.974109173E0,-2.208304405E0,3.590600014E0
1.639801721E1,-3.157761335E0,-2.384819984E0,4.716638088E0
1.640838521E1,-3.350574493E0,-1.727634430E0,5.489542961E0
1.641941521E1,-3.257200480E0,-5.616579056E-1,5.434476852E0
1.642805021E1,-2.793117285E0,4.712543488E-1,4.910100937E0
1.644071021E1,-2.265205145E0,1.318459511E0,4.544545174E0
1.645426921E1,-1.467614293E0,2.379263878E0,3.838527679E0
1.646801221E1,-1.279518962E0,2.642685413E0,3.477427244E0
1.647826321E1,-1.191526890E0,2.773676872E0,3.127067566E0
1.648801521E1,-1.151224971E0,2.823917389E0,2.788334370E0
1.649798921E1,-1.016492605E0,2.770895481E0,2.551817894E0
1.650813821E1,-8.701558113E-1,2.621942043E0,2.341940165E0
1.651882721E1,-7.124447823E-1,2.469161510E0,2.156140089E0
1.652812821E1,-4.951239824E-1,2.230848789E0,2.023209095E0
1.653914421E1,-2.464449704E-1,2.037435532E0,1.862896919E0
1.654807121E1,-3.856703639E-2,1.852645874E0,1.693187475E0
1.655809521E1,1.717477292E-1,1.664713383E0,1.570215821E0
1.656802821E1,3.652227223E-1,1.414824486E0,1.486969352E0
1.657867621E1,5.874179006E-1,1.052819252E0,1.423811674E0
1.658808121E1,8.182859421E-1,5.870380402E-1,1.376561284E0
1.659802121E1,1.057983994E0,9.046745300E-2,1.275330901E0
1.660803721E1,1.343096018E0,-3.613300323E-1,1.019123793E0
1.661796521E1,1.594763994E0,-6.774501801E-1,6.489362717E-1
1.662801921E1,1.819684148E0,-8.069667816E-1,3.876662254E-2
1.663798221E1,2.096588850E0,-7.008399963E-1,-8.455039263E-1
1.664794021E1,2.454994202E0,-2.996988297E-1,-2.396678925E0
1.665798821E1,3.418607712E0,-1.853275299E-2,-4.664746284E0
1.666804821E1,4.079332829E0,-7.838525772E-1,-1.931344628E0
1.667799421E1,3.778675556E0,-8.329925537E-1,-5.830278397E-1
1.668849221E1,3.155376911E0,-3.623609543E-1,-7.737311125E-1
1.669808721E1,2.419321775E0,1.484804153E-1,-1.539371133E0
1.670802921E1,2.033809185E0,2.502174377E-1,-2.380101442E0
1.671792321E1,2.357146025E0,-3.013744354E-1,-3.189772844E0
1.672791021E1,3.326203108E0,-1.160516739E0,-4.252151489E0
1.673804921E1,4.073694229E0,-1.788780212E0,-5.724033356E0
1.674839021E1,4.526109695E0,-2.433202744E0,-6.530933857E0
1.675816221E1,4.718464851E0,-3.044584274E0,-6.201359272E0
1.676815621E1,4.563863277E0,-3.727687836E0,-4.952940941E0
1.678021221E1,4.592249870E0,-4.672443390E0,-3.581460953E0
1.679313571E1,4.053749084E0,-6.774765015E0,-1.973603725E0
1.680804421E1,3.287420988E0,-7.095440865E0,-1.433349371E0
1.681838421E1,2.060817242E0,-6.664731979E0,-7.373895645E-1
1.682809521E1,6.179276109E-1,-5.197465897E0,-1.326443851E-1
1.683825421E1,-7.984639406E-1,-3.411592484E0,5.035270452E-1
1.684834721E1,-1.552060843E0,-1.759745598E0,8.242781758E-1
1.686074721E1,-2.017351389E0,-4.596452713E-1,1.057066917E0
1.687818521E1,-2.153724670E0,1.005436897E0,1.535644293E0
1.688814121E1,-2.112115383E0,1.011428833E0,1.583482623E0
1.689865321E1,-1.312432289E0,-1.567429543E0,1.531629086E0
1.690838121E1,-1.883982301E0,-2.190406799E0,2.315546036E0
1.691801021E1,-3.362838507E0,-1.496442795E0,3.502989292E0
1.692833021E1,-5.452507019E0,-2.703304291E-1,4.261759758E0
1.693795521E1,-6.525463104E0,1.881332397E-1,4.425692558E0
1.694804021E1,-5.863973618E0,-2.635145187E-1,3.769427299E0
1.695807621E1,-5.007122993E0,-5.486793518E-1,2.946494102E0
1.696802421E1,-4.610875130E0,-1.959495544E-1,2.386286020E0
1.697824021E1,-4.320496559E0,2.933750153E-1,1.893461585E0
1.698802021E1,-3.920141697E0,6.839351654E-1,1.524324894E0
1.699805621E1,-3.594006538E0,1.154651642E0,1.268587232E0
1.700801221E1,-3.271881819E0,1.836690426E0,1.049101710E0
1.701822621E1,-2.924637794E0,2.534929276E0,9.291186333E-1
1.702859421E1,-2.641023636E0,3.242409706E0,9.387608767E-1
1.703801121E1,-2.377030373E0,3.856607914E0,9.435170889E-1
1.704798121E1,-2.058385372E0,4.281416893E0,9.841040373E-1
1.705820921E1,-1.894198179E0,4.593979359E0,1.059001803E0
1.706810521E1,-2.017165422E0,4.889932632E0,1.220229864E0
1.707836321E1,-2.056930542E0,5.016331196E0,1.372081995E0
1.708852921E1,-1.733715892E0,4.838421345E0,1.430344343E0
1.709800621E1,-1.126601338E0,4.414275646E0,1.289127469E0
1.710811621E1,-7.268901467E-1,4.038074970E0,1.053318977E0
1.711832521E1,-4.372203350E-1,3.678789139E0,9.403682947E-1
1.712810921E1,-5.122489929E-1,3.422788143E0,1.213446379E0
1.713820321E1,-4.852023125E-1,2.976695538E0,1.529462337E0
1.714843621E1,-9.031277895E-2,2.290825844E0,1.910312295E0
1.715818221E1,-1.067097187E-1,1.466269493E0,2.181807995E0
1.716809221E1,-1.702648997E-1,5.835018158E-1,2.283260584E0
1.717804321E1,5.828012228E-1,-1.106901169E-1,2.281784058E0
1.718819021E1,1.079213858E0,-9.767646790E-1,2.321398258E0
1.719814621E1,1.899722576E0,-1.763638496E0,1.858334661E0
1.720811421E1,2.465348721E0,-2.127306938E0,1.223576188E0
1.721824221E1,2.640515327E0,-2.331268311E0,5.022411346E-1
1.722807721E1,2.986514807E0,-1.938275337E0,-8.905208111E-1
1.723821121E1,3.301720619E0,-1.329291344E0,-3.577146053E0
1.724802221E1,4.097436905E0,-1.613306046E0,-5.593026161E0
1.725837021E1,4.611052513E0,-1.450616837E0,-5.559473038E0
1.726798121E1,4.576061249E0,-1.032157898E0,-4.584342003E0
1.727807721E1,4.854775906E0,-1.208928108E0,-4.296912193E0
1.728792521E1,5.625552177E0,-1.495640755E0,-6.033515930E0
1.729832021E1,5.863142967E0,-1.785542488E0,-8.430209160E0
1.730817121E1,5.242572308E0,-1.511456490E0,-8.515033722E0
1.731806121E1,4.212095261E0,-9.484939575E-1,-5.995685101E0
1.732824221E1,3.293915987E0,-9.269104004E-1,-3.349628210E0
1.733794021E1,2.787258148E0,-1.634974480E0,-7.789280415E-1
1.734810621E1,2.031486988E0,-2.624718666E0,1.283455133E0
1.735805421E1,1.503485680E0,-3.645432472E0,2.319413185E0
1.736835721E1,1.229945660E0,-4.808788300E0,2.744524240E0
1.737808721E1,1.115930796E0,-5.984958649E0,3.152995348E0
1.738801121E1,7.083451152E-1,-6.483022690E0,3.530930758E0
1.739867121E1,-1.260892749E-1,-6.269865036E0,3.808006287E0
1.740809021E1,-1.154168487E0,-5.162808418E0,3.692791224E0
1.741793821E1,-2.102213621E0,-3.560180664E0,3.182994843E0
1.742805921E1,-2.677530050E0,-2.035491943E0,2.647596598E0
1.743822021E1,-3.153923750E0,-8.321733475E-1,1.559274077E0
1.744798621E1,-3.127195120E0,-3.083419800E-2,9.614163637E-1
1.745827321E1,-2.989475012E0,3.374099731E-2,5.955886841E-1
1.746806921E1,-3.193931103E0,-1.353998184E-1,4.004343748E-1
1.747829721E1,-3.359891176E0,6.958580017E-2,4.894528389E-1
1.748835821E1,-3.353688002E0,3.272161484E-1,6.312094927E-1
1.749800721E1,-3.291248322E0,5.151376724E-1,6.647971869E-1
1.750801721E1,-3.196003199E0,7.304277420E-1,7.996517420E-1
1.751801321E1,-3.156441212E0,8.894071579E-1,1.035265446E0
1.752807021E1,-3.158921003E0,1.009055138E0,1.300807834E0
1.753789921E1,-3.024464607E0,1.187842369E0,1.524469972E0
1.754789721E1,-2.675659657E0,1.490808487E0,1.756638527E0
1.755843521E1,-2.247334480E0,1.888332367E0,1.914731264E0
1.756818721E1,-1.880895972E0,2.230105877E0,1.948111534E0
1.757803621E1,-1.448549509E0,2.407026768E0,1.945072055E0
1.758793121E1,-1.142561555E0,2.525837898E0,1.878807783E0
1.759812721E1,-8.570991755E-1,2.649912834E0,1.841290116E0
1.761077921E1,-5.117790103E-1,2.690591812E0,1.833466291E0
1.762846121E1,4.029043913E-1,2.425743103E0,1.781639695E0
1.763832721E1,6.916724443E-1,2.278875828E0,1.791065693E0
1.764889421E1,9.643237591E-1,2.102230549E0,1.863682032E0
1.765784421E1,1.152268529E0,1.919074059E0,1.977406621E0
1.766797121E1,1.459513903E0,1.759462833E0,2.162201881E0
1.768140621E1,1.722748041E0,1.692108154E0,2.256857634E0
1.769801021E1,1.657243252E0,1.731614113E0,2.168386936E0
1.771144421E1,1.429383516E0,1.666258812E0,2.006701708E0
1.772809221E1,1.161595583E0,9.430866241E-1,1.642640948E0
1.773818521E1,1.150760889E0,5.234804153E-1,1.728863835E0
1.774795021E1,1.184905648E0,1.453428268E-1,1.873003483E0
1.775853021E1,1.320534825E0,-1.612977982E-1,1.855108857E0
1.776820421E1,1.461810589E0,-3.160791397E-1,1.738136053E0
1.777861721E1,1.558619499E0,-3.136663437E-1,1.524970293E0
1.778806921E1,1.716252923E0,-3.256435394E-1,1.196875215E0
1.779795521E1,1.972985744E0,-2.767982483E-1,5.115811825E-1
1.780847821E1,2.417485237E0,-4.149532318E-2,-2.523643494E0
1.781811221E1,2.910530090E0,-3.462600708E-2,-6.292623997E0
1.782795321E1,2.980749130E0,-1.489543915E-1,-9.495504379E0
1.783803121E1,1.939875841E0,5.658760071E-1,-8.949417114E0
1.784818221E1,1.470379353E0,1.691627502E-2,-5.351812363E0
1.786123221E1,1.658505440E0,-3.762836456E-1,-2.519352436E0
1.787892921E1,2.807452440E0,-8.553152084E-1,1.691249609E-1
1.788815721E1,2.978787184E0,-1.339836121E0,9.302484989E-1
1.789810521E1,3.000176430E0,-2.118962288E0,1.628306150E0
1.790805521E1,2.946271896E0,-2.810257912E0,2.326942444E0
1.791827921E1,3.098345995E0,-3.610446930E0,2.751224756E0
1.792812621E1,3.253307581E0,-4.525366783E0,1.596991062E0
1.793794021E1,2.883556366E0,-5.342619896E0,9.025076032E-1
1.794863521E1,2.534335852E0,-5.754119873E0,6.178846359E-1
1.796125521E1,2.233467579E0,-6.082591057E0,4.201835990E-1
1.797911121E1,6.007941365E-1,-5.710653305E0,2.242132425E-1
1.798796821E1,-8.671808243E-1,-2.252818108E0,2.567050457E-1
1.799830221E1,-6.839964390E-1,-8.624334335E-1,-5.698156357E-2
1.800810121E1,-5.808544159E-1,1.693058014E-1,-2.598392963E-1
1.801818621E1,-6.494938135E-1,7.340412140E-1,-3.077929020E-1
1.802797621E1,-8.739672899E-1,9.894304276E-1,-2.698322535E-1
1.803810921E1,-1.221769214E0,9.535913467E-1,1.731991768E-3
1.804804821E1,-1.877921700E0,7.815217972E-1,1.174848080E-1
1.805825221E1,-3.032384396E0,3.843364716E-1,1.606295109E-1
1.806816721E1,-3.915069818E0,-3.073768616E-1,2.136486769E-1
1.807837221E1,-4.440104961E0,-1.084089279E0,2.891116142E-1
1.808802021E1,-4.595454693E0,-1.766165733E0,3.612830639E-1
1.809838321E1,-3.921583176E0,-2.012571335E0,1.382243633E-1
1.810801521E1,-3.026934147E0,-1.319879532E0,2.379131317E-2
1.811809721E1,-2.291333914E0,-1.379432678E-1,-7.566404343E-2
1.812861921E1,-1.873514533E0,1.114809990E0,-5.946755409E-2
1.813819921E1,-1.511896372E0,1.979580879E0,5.619883537E-2
1.814805921E1,-1.290585756E0,2.604811192E0,2.923583984E-1
1.815838421E1,-1.169876814E0,3.171957016E0,7.865959406E-1
1.816851721E1,-1.185148358E0,3.650090218E0,1.292271495E0
1.817818321E1,-1.183450937E0,3.980808735E0,1.670935273E0
1.818799221E1,-1.242661476E0,4.266165733E0,1.908033729E0
1.819792821E1,-1.173710346E0,4.364634514E0,2.224081278E0
1.820802121E1,-1.077777147E0,4.332208633E0,2.398534060E0
1.821820321E1,-8.561484814E-1,4.075364113E0,2.478589535E0
1.822804921E1,-6.099088788E-1,3.772633076E0,2.491441965E0
1.823799821E1,-3.496345878E-1,3.311948776E0,2.686002493E0
1.824811221E1,-2.281069756E-4,2.926312923E0,2.703818321E0
1.825842721E1,4.182362556E-1,2.500193596E0,2.703030825E0
1.826840721E1,9.404007196E-1,2.210289955E0,2.628287554E0
1.827802721E1,1.588215113E0,1.963895798E0,2.583256006E0
1.828800821E1,2.012259245E0,1.917368412E0,2.613648891E0
1.829820621E1,2.215200901E0,1.840047359E0,2.686098337E0
1.830804921E1,2.333067894E0,1.645453930E0,2.747844458E0
1.831796621E1,2.318292379E0,1.244634628E0,2.779554844E0
1.832804121E1,2.248218536E0,7.748022079E-1,2.759268761E0
1.833797521E1,2.245490789E0,2.235326767E-1,2.743258953E0
1.834846721E1,2.259874105E0,-4.127941132E-1,2.652859211E0
1.835841921E1,2.293275833E0,-9.668512344E-1,2.529590845E0
1.836833121E1,2.307629108E0,-1.394537926E0,2.335280657E0
1.837800521E1,2.276582003E0,-1.619318008E0,1.977025986E0
1.838798121E1,2.356200457E0,-1.419644356E0,6.433908939E-1
1.839793621E1,2.658273697E0,-3.083171844E-1,-5.179508209E0
1.840802721E1,2.840803623E0,-7.123727798E-1,-1.146026134E1
1.841815521E1,1.126493454E0,-2.895617485E0,-8.394346237E0
1.842813121E1,2.249994278E-1,-3.348989487E0,-6.938581944E0
1.843794021E1,1.614446640E-1,-3.344446182E0,-7.725035667E0
1.844890121E1,1.035371542E0,-2.769932747E0,-7.904355526E0
1.845812621E1,1.872907877E0,-1.695837021E0,-5.711241722E0
1.846818821E1,1.554436564E0,-1.129326820E0,-3.352538824E0
1.847820321E1,1.019870877E0,-1.473691940E0,-7.096791267E-1
1.848807921E1,5.511284471E-1,-2.509675026E0,1.070326328E0
1.849856021E1,1.324731112E-1,-4.920316696E0,3.208270073E0
1.850806121E1,6.795597076E-2,-4.895965576E0,3.147676706E0
1.851814721E1,-5.320405960E-2,-5.527100563E0,3.664424896E0
1.852977421E1,-3.656988144E-1,-6.039103508E0,3.832652569E0
1.853825021E1,-9.250737429E-1,-5.477691650E0,4.005037785E0
1.854798421E1,-1.660812140E0,-4.088234901E0,3.638929844E0
1.855802321E1,-2.276451111E0,-2.343297005E0,2.663400412E0
1.856803621E1,-2.872800350E0,-7.504549026E-1,4.644984007E-1
1.857845421E1,-2.836925983E0,2.884626389E-1,-1.086741328E0
1.858820821E1,-2.287235498E0,4.970293045E-1,-1.236609101E0
1.859818621E1,-2.083527327E0,4.159374237E-1,-6.726976633E-1
1.860811221E1,-2.145147800E0,3.269100189E-1,1.670095921E-1
1.861843521E1,-2.218341351E0,2.476415634E-1,6.119114161E-1
1.862858821E1,-2.292513371E0,1.785173416E-1,5.641974807E-1
1.863811021E1,-2.333361626E0,1.782732010E-1,3.547873497E-1
1.864792121E1,-2.306789398E0,2.578668594E-1,2.894359827E-1
1.865892121E1,-2.289697886E0,5.234851837E-1,2.430751324E-1
1.866933421E1,-2.240724087E0,8.263130188E-1,4.122458696E-1
1.867803321E1,-2.104248285E0,1.069217682E0,7.576321363E-1
1.868799821E1,-1.948249578E0,9.590997696E-1,1.098535299E0
1.869804421E1,-1.591250420E0,7.821226120E-1,1.378057122E0
1.870874521E1,-1.191279531E0,7.604141235E-1,1.541788697E0
1.871817521E1,-9.632242918E-1,1.018070221E0,1.628204346E0
1.872813821E1,-8.589543104E-1,1.473232269E0,1.646423340E0
1.873804021E1,-6.058157682E-1,1.910268784E0,1.770181298E0
1.874853821E1,-2.298034430E-1,2.170569420E0,1.849471211E0
1.875845721E1,2.015056610E-1,2.222434998E0,1.958709002E0
1.876862621E1,5.756278038E-1,2.198764801E0,2.104972601E0
1.877804821E1,8.951737285E-1,2.242046833E0,2.142841578E0
1.878799321E1,1.052318931E0,2.306225300E0,2.140956879E0
1.879823321E1,1.056812525E0,2.391253948E0,2.074321508E0
1.880803021E1,1.120290756E0,2.525077343E0,2.004950523E0
1.881805721E1,1.498308182E0,2.563925743E0,1.871262789E0
1.882805521E1,1.918945432E0,2.624172688E0,1.688787818E0
1.883801621E1,2.261242867E0,2.601631641E0,1.453981280E0
1.884804121E1,2.539992809E0,2.474623203E0,1.215439081E0
1.885833721E1,2.556234121E0,2.218780041E0,1.003303766E0
1.886822321E1,2.530236244E0,1.876269341E0,7.920715809E-1
1.887822921E1,2.692183495E0,1.478513718E0,5.188421011E-1
1.888806021E1,2.930457830E0,9.994668961E-1,5.050386190E-1
1.889823121E1,3.214246273E0,5.548152924E-1,5.106470585E-1
1.890814621E1,3.478839397E0,3.738594055E-2,5.114940405E-1
1.891803521E1,3.636422873E0,-2.611579895E-1,5.405541658E-1
1.892799021E1,3.714029789E0,-4.184789658E-1,5.342535973E-1
1.893804821E1,3.726959467E0,-4.824781418E-1,3.789794445E-1
1.894849421E1,3.679599285E0,-4.672365189E-1,1.609053612E-1
1.895850821E1,3.625340939E0,-4.449234009E-1,-1.571569443E-1
1.896819521E1,3.598833561E0,-4.886407852E-1,-3.578314781E-1
1.897802921E1,3.509443998E0,-5.047559738E-1,-4.273264408E-1
1.898815021E1,3.542135954E0,-4.961977005E-1,-5.020575523E-1
1.899849121E1,3.619982719E0,-7.006082535E-1,-5.863070488E-1
1.900801221E1,3.625861883E0,-1.032329559E0,-5.142278671E-1
1.901802821E1,3.442382097E0,-1.515623093E0,-6.465296745E-1
1.902820521E1,3.197305202E0,-2.428860664E0,-3.327504158E0
1.903837921E1,2.368983030E0,-1.071357727E0,-2.432503939E0
1.904797521E1,2.274243593E0,-1.020144463E0,-2.517736673E0
1.905823521E1,2.957185030E0,-2.452953339E0,-3.399606705E0
1.906803821E1,3.190355062E0,-3.758709908E0,-3.719815969E0
1.907794521E1,3.123550892E0,-5.199708939E0,-3.623452187E0
1.908795021E1,3.041934967E0,-6.695869446E0,-3.364842892E0
1.909845721E1,2.662212372E0,-8.263102531E0,-3.077729702E0
1.910801321E1,1.286177397E0,-9.224890709E0,-2.409877777E0
1.911838321E1,-5.471444130E-2,-8.602411270E0,-1.274768591E0
1.912810821E1,-1.189947128E0,-6.741371155E0,-1.105178595E-1
1.913930221E1,-1.421273470E0,-4.247597694E0,4.178091288E-1
1.914812221E1,-1.126978040E0,-2.421128273E0,4.192863703E-1
1.915893121E1,-1.331656575E0,-1.720205307E0,1.972001791E-1
1.916806321E1,-2.073042154E0,-1.796017647E0,-1.725940704E-1
1.917894621E1,-2.285765171E0,-1.392491341E0,-5.374703407E-1
1.918799821E1,-2.165572643E0,-7.400503159E-1,-6.192982197E-1
1.919809421E1,-2.046936989E0,-1.362943649E-1,-2.430756092E-1
1.920940821E1,-2.060931444E0,3.648281097E-1,3.941080570E-1
1.921797421E1,-2.194755554E0,6.520566940E-1,1.004617095E0
1.922817221E1,-2.391204357E0,7.872753143E-1,1.486387253E0
1.923845921E1,-2.735237598E0,8.134307861E-1,1.886301756E0
1.924798121E1,-3.150053024E0,7.638177872E-1,2.346359253E0
1.925809721E1,-3.336759567E0,6.490364075E-1,2.708658695E0
1.926792921E1,-3.333579540E0,6.067457199E-1,3.109139204E0
1.927839021E1,-3.280186653E0,8.296079636E-1,3.331883669E0
1.928803421E1,-3.240642786E0,1.290622234E0,3.413968563E0
1.929810021E1,-3.134907007E0,1.857526302E0,3.334748983E0
1.930923721E1,-2.944856167E0,2.424408913E0,3.161821604E0
1.931797121E1,-2.663125992E0,2.838840485E0,2.946313143E0
1.932806221E1,-2.453174591E0,3.135509491E0,2.727034330E0
1.933792921E1,-2.242955685E0,3.306021214E0,2.535244465E0
1.934792021E1,-1.951928139E0,3.485820770E0,2.345429420E0
1.935825021E1,-1.557591319E0,3.627301693E0,2.163980484E0
1.936812821E1,-1.160563469E0,3.854394436E0,2.059797764E0
1.937825021E1,-8.405851126E-1,4.022989750E0,1.973212719E0
1.938801421E1,-5.706226826E-1,4.055019855E0,1.925172448E0
1.939841721E1,-3.918393552E-1,3.999420166E0,1.944456458E0
1.940855621E1,-1.840345562E-1,3.702848434E0,1.975710273E0
1.941811421E1,6.403744221E-2,3.312337399E0,1.974922299E0
1.942840421E1,3.307678103E-1,2.912805557E0,2.049899101E0
1.943791921E1,5.462045670E-1,2.519119263E0,2.033344746E0
1.944810921E1,6.627472639E-1,2.146091461E0,1.863724589E0
1.945855721E1,7.996022701E-1,1.738905907E0,1.600443244E0
1.946799721E1,9.761093259E-1,1.415257931E0,1.369090557E0
1.947832721E1,1.093732715E0,1.119784355E0,1.174320936E0
1.948799821E1,1.183950186E0,7.597370148E-1,7.265770435E-1
1.949795421E1,1.294282556E0,4.882946014E-1,3.053283691E-1
1.950793121E1,1.581599712E0,2.268972397E-1,-2.549369335E-1
1.951804021E1,1.836865902E0,2.179241180E-2,-7.960100174E-1
1.952860521E1,1.902280092E0,-3.123664856E-2,-1.166627884E0
1.953783721E1,1.840030909E0,-1.353845596E-1,-1.081633568E0
1.954795621E1,1.864851356E0,-4.230117798E-1,-1.512482405E0
1.955811821E1,2.003211021E0,-6.880569458E-1,-1.560551643E0
1.956811721E1,2.181607246E0,-1.082398415E0,-1.554150820E0
1.957813221E1,2.257331133E0,-1.566045761E0,-1.561937332E0
1.958839821E1,2.143848419E0,-2.529863358E0,-1.687000751E0
1.959841421E1,1.902254343E0,-3.118634224E0,-1.769433975E0
1.960889821E1,1.822238326E0,-3.648856163E0,-2.381497622E0
1.961825021E1,1.976833701E0,-4.263404846E0,-4.271642208E0
1.962801921E1,2.067649126E0,-4.538416862E0,-5.279683113E0
1.963831921E1,3.037364006E0,-4.640191078E0,-9.007396698E0
1.964984921E1,2.413125515E0,-4.403834343E0,-8.895288467E0
1.965830621E1,2.723460197E-1,-4.020326614E0,-4.727906227E0
1.966802221E1,-9.389406443E-1,-3.221328735E0,-3.025384665E0
1.967845921E1,-1.292272091E0,-2.992312431E0,-2.638487339E0
1.968836921E1,-1.286489725E0,-3.186244011E0,-2.363828897E0
1.969810221E1,-1.248742223E0,-3.130925179E0,-1.761282682E0
1.970802321E1,-1.171250343E0,-2.971766472E0,-8.566484451E-1
1.971814421E1,-1.243248701E0,-2.755682945E0,3.248119354E-2
1.972833421E1,-1.315284252E0,-2.314955711E0,8.773019314E-1
1.973808121E1,-1.212651134E0,-1.605667114E0,1.667974710E0
1.974800221E1,-9.964739084E-1,-8.081817627E-1,2.261072159E0
1.975808921E1,-8.748834133E-1,-1.736307144E-1,2.592606068E0
1.976805121E1,-8.369459510E-1,2.002515793E-1,3.059285164E0
1.977809221E1,-9.741277695E-1,3.730869293E-1,3.542945623E0
1.978833121E1,-1.043323755E0,2.970027924E-1,3.917350531E0
1.979835121E1,-1.198590517E0,1.536655426E-1,4.113560677E0
1.980813121E1,-1.349903345E0,6.855964661E-3,4.252613068E0
1.981807521E1,-1.484697104E0,-8.776283264E-2,4.466378689E0
1.982801621E1,-1.530098081E0,-1.969223022E-1,4.719321728E0
1.983804821E1,-1.642750382E0,-1.699953079E-1,4.873970032E0
1.984805721E1,-1.761322021E0,-2.081871033E-2,4.871258736E0
1.985816621E1,-1.770131111E0,2.860889435E-1,4.558037758E0
1.986797721E1,-1.556159854E0,6.180601120E-1,4.008360386E0
1.987897121E1,-1.231427193E0,1.087457180E0,3.494130373E0
1.988845121E1,-7.485844493E-1,1.639463425E0,3.172182798E0
1.989798821E1,-3.118751645E-1,2.091038704E0,2.924723864E0
1.990799321E1,1.791632175E-2,2.327890873E0,2.781321764E0
1.991810621E1,2.566071749E-1,2.524502277E0,2.686514616E0
1.992803121E1,4.393504858E-1,2.588789463E0,2.607490063E0
1.993796921E1,6.200210452E-1,2.525398731E0,2.474203587E0
1.994880921E1,9.051711559E-1,2.412647724E0,2.364902973E0
1.995808921E1,1.105346560E0,2.231095314E0,2.328855038E0
1.996809221E1,1.221202374E0,1.977656364E0,2.381666660E0
1.997804321E1,1.189877868E0,1.607240200E0,2.323877335E0
1.998800421E1,1.149190426E0,1.243623734E0,2.212239981E0
1.999842321E1,1.147717118E0,9.251976013E-1,2.126678944E0
2.000807221E1,1.194900036E0,6.246328354E-1,1.952289104E0
2.001827521E1,1.257570744E0,4.333820343E-1,1.681988716E0
2.002834121E1,1.377348542E0,2.494153976E-1,1.285407543E0
2.003808621E1,1.511100769E0,1.013078690E-1,8.187713623E-1
2.004873221E1,1.613958120E0,1.892757416E-2,3.862059116E-1
2.005860621E1,1.719968557E0,2.419567108E-2,3.593540192E-2
2.006813121E1,1.824755430E0,-6.427764893E-4,-2.392442226E-1
2.007821621E1,1.952503324E0,-3.771114349E-2,-4.835844040E-1
2.008807921E1,2.071121216E0,-5.567073822E-2,-6.247410774E-1
2.009800121E1,2.135548592E0,-5.027294159E-2,-9.913592339E-1
2.011133621E1,2.220936537E0,2.036857605E-1,-1.281584263E0
2.012820921E1,2.315047026E0,7.091903687E-2,-1.718197584E0
2.013794121E1,2.213035583E0,-1.319866180E-1,-2.206359863E0
2.014799021E1,2.032219172E0,-3.232955933E-1,-2.455856562E0
2.015824321E1,1.951807499E0,-5.544366837E-1,-2.440591574E0
2.016802521E1,1.948661566E0,-9.072370529E-1,-2.432880878E0
2.017801421E1,1.949349642E0,-1.408088684E0,-2.294454098E0
2.018814021E1,1.995189071E0,-2.065135956E0,-2.085284233E0
2.019804421E1,2.061789989E0,-2.833322525E0,-1.848722458E0
2.020819821E1,2.168576956E0,-3.821516037E0,-1.645130157E0
2.021808921E1,2.255223989E0,-4.840406418E0,-1.488654375E0
2.022852121E1,2.278243303E0,-5.882767677E0,-1.515637636E0
2.023914621E1,2.260446787E0,-6.996733665E0,-1.553509235E0
2.024796921E1,2.173197985E0,-7.789664268E0,-1.665165663E0
2.025810221E1,1.825293541E0,-7.594263077E0,-1.565988779E0
2.026798421E1,1.151614785E0,-6.143275261E0,-1.337596178E0
2.027820521E1,5.423349142E-1,-4.116906166E0,-1.166180611E0
2.028843521E1,5.405068398E-2,-2.384855270E0,-1.198604107E0
2.029804521E1,-4.044748545E-1,-1.086076736E0,-1.128939629E0
2.030861421E1,-7.466281652E-1,-3.245086670E-1,-1.062386036E0
2.031806121E1,-8.671027422E-1,3.793525696E-2,-9.883916378E-1
2.032850521E1,-9.086812735E-1,4.986429214E-1,-6.974322796E-1
2.033798821E1,-8.729443550E-1,9.311351776E-1,-3.272387981E-1
2.034800721E1,-9.107111692E-1,1.210115433E0,1.748352051E-1
2.035898321E1,-9.921829700E-1,1.323095798E0,7.225573063E-1
2.036857521E1,-1.199942946E0,1.357311726E0,1.257144094E0
2.037875221E1,-1.583326340E0,1.324745655E0,1.705476999E0
2.038848321E1,-2.087808609E0,1.081759453E0,2.212871313E0
2.039813421E1,-2.626601696E0,9.272203445E-1,2.592198610E0
2.040797121E1,-3.056535482E0,8.418340683E-1,2.909586191E0
2.041870721E1,-3.300820112E0,9.717216492E-1,3.223939180E0
2.042805521E1,-3.293931484E0,1.273156166E0,3.353322029E0
2.043798621E1,-3.030163288E0,1.649329185E0,3.312062502E0
2.044832821E1,-2.501709938E0,1.790047646E0,2.871595383E0
2.045826421E1,-1.855573177E0,1.768514156E0,2.314810753E0
2.046811521E1,-1.280747652E0,1.834608078E0,1.866552591E0
2.047828821E1,-7.595993280E-1,2.020391464E0,1.525679946E0
2.048799221E1,-7.474541664E-3,2.432518005E0,1.141942978E0
2.049906921E1,7.603723407E-1,2.812521458E0,1.060337543E0
2.050798621E1,1.181002855E0,2.915629864E0,1.283313036E0
2.051826821E1,1.588652253E0,2.956419468E0,1.578479171E0
2.052822621E1,1.772852540E0,2.868863583E0,1.803678989E0
2.053800921E1,1.837947845E0,2.796584606E0,1.969877958E0
2.054800821E1,1.801352978E0,2.706438065E0,2.115744114E0
2.055829121E1,1.682032228E0,2.618870258E0,2.195606232E0
2.056841921E1,1.588708282E0,2.364812374E0,2.181764603E0
2.057844821E1,1.472955108E0,2.028890610E0,2.078520060E0
2.058822521E1,1.359559417E0,1.715005398E0,1.921875119E0
2.059805921E1,1.175607085E0,1.374305725E0,1.724699020E0
2.060816121E1,9.180983305E-1,1.056797028E0,1.394438982E0
2.061794121E1,6.497811675E-1,7.391633987E-1,1.041682482E0
2.062798121E1,4.871391654E-1,4.276456833E-1,6.236205101E-1
2.063791721E1,4.232377410E-1,2.196865082E-1,1.859996319E-1
2.064793921E1,4.804139137E-1,8.138275146E-2,-2.811341286E-1
2.065799121E1,6.338456869E-1,-6.731987000E-2,-7.494564056E-1
2.066854321E1,9.523761272E-1,-2.736759186E-1,-1.478068590E0
2.067808921E1,1.119278193E0,-3.214559555E-1,-1.792688608E0
2.068802121E1,1.287763715E0,-3.357133865E-1,-2.135988235E0
2.069818921E1,1.416460514E0,-4.638204575E-1,-2.298348904E0
2.070809721E1,1.383868217E0,-7.202968597E-1,-2.499093056E0
2.071887021E1,1.288528800E0,-1.189393044E0,-2.617626905E0
2.072797321E1,1.344862103E0,-1.777840614E0,-2.620839596E0
2.073808321E1,1.402619123E0,-2.332022667E0,-2.397541761E0
2.074816321E1,1.510216951E0,-2.981110573E0,-2.444578171E0
2.075809721E1,1.558246613E0,-3.647736549E0,-3.365839481E0
2.076799621E1,1.574354768E0,-4.095989227E0,-4.434110641E0
2.078036521E1,1.708695650E0,-4.253335953E0,-5.711983681E0
2.079815221E1,1.162335277E0,-4.230617523E0,-4.158828259E0
2.080803221E1,-4.888598919E-1,-4.306764603E0,-2.797626972E0
2.081803721E1,-1.213112593E0,-4.504091263E0,-1.976014137E0
2.082803121E1,-1.180275083E0,-4.785393715E0,-2.053065538E0
2.083832021E1,-9.119693041E-1,-4.597642899E0,-2.067204475E0
2.084808821E1,-6.262814999E-1,-3.679949760E0,-1.827089548E0
2.085828421E1,-2.870911360E-1,-2.523676872E0,-1.123453617E0
2.086988221E1,1.944999695E-1,-1.349702835E0,-4.541578293E-1
2.087915221E1,7.112734914E-1,-2.594995499E-1,1.248066425E-1
2.088837921E1,9.188494682E-1,4.306879044E-1,7.473464012E-1
2.089826621E1,8.431772590E-1,8.092041016E-1,1.291188002E0
2.090808721E1,5.847817063E-1,1.053272247E0,1.950515747E0
2.091825221E1,1.646349430E-1,1.128375530E0,2.659579754E0
2.092803821E1,-1.327966452E-1,9.985666275E-1,3.336014509E0
2.093813121E1,-5.843412876E-1,5.977325439E-1,4.114025116E0
2.094816421E1,-9.154156446E-1,5.398368835E-2,4.780972958E0
2.095844121E1,-1.217740893E0,-4.459991455E-1,5.225242615E0
2.096847521E1,-1.448176146E0,-8.367214203E-1,5.489562035E0
2.097825921E1,-1.530304670E0,-7.869710922E-1,5.424530506E0
2.098801921E1,-1.523896694E0,-5.848140717E-1,5.806566238E0
2.099812621E1,-1.354490757E0,-6.418628693E-1,5.875006199E0
2.100800421E1,-8.617071509E-1,-7.119150162E-1,5.936968803E0
2.101834821E1,-1.309755445E-1,-5.095376968E-1,5.706164837E0
