"Time (s)","Linear Acceleration x (m/s^2)","Linear Acceleration y (m/s^2)","Linear Acceleration z (m/s^2)"
2.298087300E-2,-2.698168755E-1,3.958864212E-1,4.850392342E-1
3.863449800E-2,-2.650284767E-1,3.875064850E-1,5.149664879E-1
5.147981000E-2,-1.465153694E-1,2.869501114E-1,9.255728722E-1
6.295846600E-2,1.219761372E-1,2.880916595E-1,1.202464581E0
7.385879400E-2,2.157850266E-1,3.279609680E-1,1.102966785E0
8.482095800E-2,1.894710064E-1,4.403634071E-1,8.657588959E-1
9.477654000E-2,3.825426102E-2,4.353237152E-1,5.300126076E-1
1.046248310E-1,-1.649720669E-1,3.751487732E-1,2.785549164E-1
1.147199770E-1,-3.673276901E-1,3.218097687E-1,1.829361916E-1
1.247530500E-1,-4.342658520E-1,1.409368515E-1,1.679854393E-1
1.354990860E-1,-2.834153175E-1,5.940151215E-2,3.212065697E-1
1.449851040E-1,-3.913187981E-1,1.646428108E-1,6.932930946E-1
1.548641130E-1,-3.921456337E-1,-7.013130188E-2,-1.375880241E-1
1.648251180E-1,9.413719177E-3,-5.226373672E-2,2.403049469E-1
1.747916200E-1,1.871829033E-1,-1.709456444E-1,2.074046135E-1
1.845543710E-1,3.898274899E-1,-2.120275497E-1,6.581974030E-2
1.946432470E-1,3.711555004E-1,-1.243391037E-1,-3.394079208E-2
2.051606850E-1,4.712927341E-1,-3.444886208E-1,-4.113063812E-1
2.147619040E-1,7.978527546E-1,-7.941060066E-1,-8.303136826E-1
2.245775130E-1,6.055798531E-1,-9.670629501E-1,-7.272944450E-1
2.345068180E-1,-2.830147743E-2,-6.802766323E-1,-5.700387955E-1
2.445634700E-1,-4.750843048E-1,-4.246549606E-1,-5.112338066E-1
2.545532960E-1,-4.928901196E-1,-5.035624504E-1,-5.268058777E-1
2.644612090E-1,-1.363697052E-1,-6.634652615E-1,-4.837002754E-1
2.747101660E-1,4.798836708E-1,-7.416753769E-1,-2.948808670E-1
2.845166440E-1,-1.560969353E-1,-9.171624184E-1,-7.528176308E-1
2.952118830E-1,-1.146697998E-1,-1.277618408E-1,-7.856197357E-1
3.047770030E-1,4.540371895E-1,-1.239423752E-1,-3.911786079E-1
3.146245630E-1,7.614569664E-1,-7.925133705E-1,-3.045029640E-1
3.261428430E-1,8.465819359E-1,-1.036902905E0,-5.981326103E-1
3.353954830E-1,1.014591217E0,-1.629127264E0,-8.593034744E-1
3.455293030E-1,8.858041763E-1,-1.556906939E0,-5.190925598E-1
3.550052130E-1,4.233520031E-1,-1.087009192E0,-2.425241470E-1
3.647901680E-1,6.401515007E-2,-6.062786579E-1,-2.397480011E-1
3.748391450E-1,-9.610652924E-2,-6.364798546E-2,-6.487846375E-2
3.847561340E-1,-2.132213116E-1,-1.846649647E-1,-2.818517685E-1
3.951016280E-1,-3.052823544E-1,-5.191249847E-1,-9.094715118E-2
4.047933750E-1,-4.610652924E-1,-7.004152536E-1,3.973855972E-1
4.147172490E-1,-6.863088608E-1,-7.357288599E-1,1.028882980E0
4.246201860E-1,-9.608166218E-1,-3.793803453E-1,1.376359940E0
4.345861540E-1,-1.743485689E0,5.502114296E-1,-1.169271469E0
4.446436380E-1,-1.492276430E0,1.372809410E0,1.467866898E-1
4.546588800E-1,-9.361577034E-1,1.209745169E0,5.026350021E-1
4.652190010E-1,3.026580811E-1,5.342645645E-1,1.445436478E-1
4.748635620E-1,1.596596241E-1,6.111853123E-1,1.020498276E-1
4.846473420E-1,1.963304281E-1,3.421769142E-1,-6.244373322E-1
4.945912320E-1,1.886348724E-1,1.038948298E-1,-1.044278145E0
5.044451770E-1,2.173229456E-1,-3.331793547E-1,-5.295324326E-1
5.144371500E-1,4.509611130E-1,-3.037558794E-1,3.774547577E-2
5.246916360E-1,1.523151040E0,-4.421246052E-2,5.977725983E-1
5.353053790E-1,1.682557583E0,6.503254175E-2,3.991489410E-1
5.448727510E-1,1.022631645E0,-1.799560189E-1,1.534461975E-2
5.546394370E-1,1.033862829E0,-2.937572002E-1,1.942100525E-1
5.645542800E-1,1.026668072E0,-4.192218781E-1,1.167954445E0
5.747587010E-1,8.350028396E-1,-4.741997719E-1,2.352236748E0
5.845944120E-1,6.154202223E-1,-5.441808701E-1,3.040567398E0
5.945117670E-1,4.410010576E-1,-6.135954857E-1,3.018295288E0
6.083609450E-1,4.067163467E-1,-6.421513557E-1,1.395099640E0
6.244071230E-1,5.707191229E-1,-6.277861595E-1,1.395099640E0
6.347211230E-1,7.438189983E-1,-6.369307637E-1,6.159038544E-1
6.445431230E-1,9.531486034E-1,-6.634724140E-1,3.406934738E-1
6.545421230E-1,1.072689295E0,-6.801676154E-1,4.015245438E-1
6.645891230E-1,1.051854610E0,-5.975629091E-1,3.939399719E-1
6.745111230E-1,8.310539126E-1,-3.963184357E-1,3.440093994E-1
6.848421230E-1,5.611553192E-1,-2.159392238E-1,7.140378952E-1
6.944931230E-1,2.226660252E-1,2.679610252E-2,1.044675827E0
7.049631230E-1,-2.038286924E-1,2.391512394E-1,4.466495514E-1
7.148011230E-1,3.026392460E-1,2.684373856E-1,6.697149277E-1
7.244311230E-1,8.304215074E-1,3.747625351E-1,-9.781999588E-1
7.356941230E-1,7.978250980E-1,7.183662653E-1,-1.798089027E0
7.451101230E-1,6.265192628E-1,8.725628853E-1,-1.863452435E0
7.548791230E-1,1.182669401E-1,8.500406742E-1,-1.733124256E0
7.647431230E-1,-2.107127905E-1,6.665256023E-1,-9.759674072E-1
7.743811230E-1,-4.929952621E-1,6.890687943E-1,2.513294220E-1
7.852561230E-1,-9.702541828E-1,9.269134998E-1,1.034106255E0
7.947941230E-1,-9.337168932E-1,6.908936501E-1,1.165861130E0
8.045091230E-1,-5.785218477E-1,3.863523006E-1,1.260977745E0
8.144141230E-1,-3.226941824E-1,2.281935215E-1,1.355023384E0
8.245781230E-1,-5.233871937E-2,1.671826839E-1,1.384790421E0
8.346051230E-1,2.439420223E-1,1.196181774E-1,1.290790558E0
8.449011230E-1,5.067991018E-1,8.885598183E-2,1.406436920E0
8.556851230E-1,5.519114733E-1,1.913690567E-1,1.454453468E0
8.647051230E-1,3.586167097E-1,3.468117714E-1,1.376242638E0
8.749111230E-1,6.002664566E-2,5.929174423E-1,1.140357018E0
8.844431230E-1,-2.410181761E-1,8.122971058E-1,1.021918297E0
8.943981230E-1,-3.167258501E-1,8.537776470E-1,1.273200989E0
9.049361230E-1,-3.063535690E-1,8.457131386E-1,1.648400307E0
9.145251230E-1,-1.469475031E-1,7.758216858E-1,1.765736580E0
9.244331230E-1,2.123879194E-1,6.521723270E-1,1.713291168E0
9.344021230E-1,6.838056445E-1,5.208551884E-1,1.922482491E0
9.444021230E-1,1.104335308E0,3.927240372E-1,2.381738663E0
9.544191230E-1,1.455111027E0,2.169492245E-1,2.669436455E0
9.645451230E-1,1.804479122E0,2.207207680E-2,2.671423912E0
9.743601230E-1,2.049546957E0,-1.805078983E-1,2.569042206E0
9.844731230E-1,2.084622622E0,-3.963899612E-1,2.342698097E0
9.963671230E-1,1.872725368E0,-1.031949043E0,1.967320442E0
1.004632123E0,1.844476700E0,-1.025418758E0,1.959567070E0
1.014429123E0,1.668341637E0,-1.296127319E0,1.704077721E0
1.024369123E0,1.501139879E0,-1.675161123E0,8.082561493E-1
1.035090123E0,1.264031529E0,-2.449047565E0,-4.476175308E-1
1.044658123E0,9.577046633E-1,-2.441162586E0,-5.603866577E-1
1.054411123E0,6.524204016E-1,-2.209956646E0,-3.753728867E-1
1.064440123E0,5.460301638E-1,-2.032911062E0,-1.777925491E-1
1.074475123E0,6.804218292E-1,-2.040003777E0,-6.097602844E-2
1.084434123E0,9.606410265E-1,-2.114922047E0,5.489158630E-2
1.094368123E0,1.267998219E0,-2.139547825E0,2.752113342E-2
1.104441123E0,1.560140610E0,-2.094350338E0,-1.401109695E-1
1.114358123E0,1.695374966E0,-1.997896910E0,-3.935308456E-1
1.125819123E0,1.748281121E0,-1.891538143E0,-6.539249420E-1
1.134543123E0,1.725713730E0,-1.797745466E0,-8.631634712E-1
1.144707123E0,1.645663977E0,-1.710621834E0,-9.547286034E-1
1.154372123E0,1.513101935E0,-1.611733675E0,-9.848623276E-1
1.164319123E0,1.332468510E0,-1.545264721E0,-8.711748123E-1
1.174486123E0,1.189734340E0,-1.490597963E0,-4.399747849E-1
1.184538123E0,1.086903334E0,-1.421759605E0,-6.939125061E-2
1.195382123E0,1.055715799E0,-1.343569994E0,3.082275391E-2
1.205131123E0,1.075330853E0,-1.335061789E0,-1.223478317E-1
1.214942123E0,1.037067056E0,-1.232520103E0,-4.476985931E-1
1.224717123E0,9.758257270E-1,-1.124956369E0,-8.279409409E-1
1.234860123E0,8.867842555E-1,-1.039481640E0,-1.202658176E0
1.249124123E0,7.956529260E-1,-9.230356216E-1,-1.612269878E0
1.264477123E0,8.577740192E-1,-6.345608234E-1,-2.052750111E0
1.274511123E0,9.498447776E-1,-5.296645164E-1,-1.988936424E0
1.286319123E0,1.004788160E0,-4.402348995E-1,-1.872687340E0
1.294431123E0,1.089272857E0,-3.475327492E-1,-1.714694500E0
1.304838123E0,1.182331800E0,-2.852697372E-1,-1.497410774E0
1.315844123E0,1.245499492E0,-2.244043350E-1,-1.278234959E0
1.324544123E0,1.232730269E0,-1.909966469E-1,-1.300163746E0
1.334698123E0,1.152208686E0,-1.249818802E-1,-1.299836159E0
1.344777123E0,1.035723686E0,-8.773708344E-2,-1.194565296E0
1.354528123E0,9.695573449E-1,-7.366800308E-2,-1.086966991E0
1.364744123E0,8.863735795E-1,-8.965206146E-2,-1.069679737E0
1.374451123E0,8.242410421E-1,-8.667230606E-2,-9.741868973E-1
1.384434123E0,7.886147499E-1,-3.767633438E-2,-8.940968513E-1
1.394440123E0,7.481906414E-1,2.582550049E-3,-7.805285454E-1
1.404859123E0,7.060229778E-1,3.249406815E-2,-5.846576691E-1
1.415178123E0,6.483006477E-1,7.485866547E-2,-3.452911377E-1
1.424587123E0,5.510767698E-1,8.303022385E-2,-7.020759583E-2
1.440129123E0,2.698496580E-1,-3.708887100E-2,6.705493927E-1
1.454519123E0,2.224342823E-1,-2.322483063E-2,9.646253586E-1
1.464837123E0,1.287885904E-1,1.264858246E-2,1.259939194E0
1.474633123E0,1.468813419E-2,7.980346680E-2,1.504411697E0
1.484433123E0,-1.102491617E-1,1.424541473E-1,1.811841965E0
1.494400123E0,-2.240002155E-1,1.642961502E-1,2.188028336E0
1.504463123E0,-3.415608406E-1,1.960153580E-1,2.494975090E0
1.514404123E0,-4.394583702E-1,1.928949356E-1,2.656538010E0
1.524485123E0,-5.064032078E-1,2.468914986E-1,2.694844246E0
1.534449123E0,-5.928364992E-1,3.639307022E-1,2.677086830E0
1.544477123E0,-6.561374664E-1,4.979896545E-1,2.683708191E0
1.554594123E0,-6.469169855E-1,6.792564392E-1,2.617024422E0
1.564420123E0,-4.873201847E-1,8.287096024E-1,2.697294235E0
1.574504123E0,2.837854624E-1,8.245959282E-1,3.064414024E0
1.584676123E0,7.296608686E-1,6.417565346E-1,3.243371010E0
1.594357123E0,1.118500948E0,3.764176369E-1,3.393571854E0
1.604566123E0,1.285649419E0,8.172035217E-3,3.439397812E0
1.614350123E0,1.171896577E0,-4.416213036E-1,3.325672150E0
1.624616123E0,8.253646493E-1,-8.047997952E-1,3.071486473E0
1.636710123E0,4.222375154E-1,-1.113603592E0,2.627100945E0
1.654365123E0,-3.069130182E-1,-1.511677265E0,1.526471138E0
1.664449123E0,-4.817461967E-1,-1.514781952E0,1.008785248E0
1.674487123E0,-4.404988289E-1,-1.547042847E0,5.603637695E-1
1.689218123E0,-2.678515911E-1,-1.642905474E0,1.670885086E-1
1.704654123E0,-7.195377350E-2,-1.854529858E0,-8.143763542E-1
1.714385123E0,-1.531119347E-1,-1.965704203E0,-1.258696556E0
1.724874123E0,-3.432008028E-1,-2.037377596E0,-1.540414333E0
1.734416123E0,-5.594794750E-1,-2.054048061E0,-1.763864517E0
1.744432123E0,-7.020493746E-1,-2.021302700E0,-1.823814869E0
1.754433123E0,-6.948424578E-1,-2.048499584E0,-1.721927166E0
1.764938123E0,-4.984730482E-1,-2.183253288E0,-1.485154629E0
1.774970123E0,-2.218604088E-1,-2.314034224E0,-1.230106354E0
1.784919123E0,3.603267670E-2,-2.397066832E0,-9.531035423E-1
1.795643123E0,1.323111057E-1,-2.397385120E0,-5.624670982E-1
1.805117123E0,1.788275242E-1,-2.392744064E0,-1.647996902E-1
1.814899123E0,1.616830826E-1,-2.439869642E0,3.235683441E-1
1.824586123E0,1.280796528E-1,-2.486599445E0,6.874475479E-1
1.834554123E0,7.194042206E-2,-2.514629126E0,8.541898727E-1
1.845657123E0,-3.177011013E-2,-2.548044205E0,7.678556442E-1
1.855109123E0,-1.043218374E-1,-2.529256344E0,4.943084717E-1
1.864572123E0,-1.287270784E-1,-2.456807375E0,1.139574051E-1
1.874363123E0,-6.302309036E-2,-2.307959557E0,-3.049240112E-1
1.884555123E0,4.419219494E-2,-2.163690805E0,-6.634306908E-1
1.894381123E0,1.933726072E-1,-1.979048014E0,-1.010908604E0
1.904376123E0,3.341158628E-1,-1.782633305E0,-1.221190929E0
1.915551123E0,4.560126066E-1,-1.565362692E0,-1.416874886E0
1.924416123E0,5.754672289E-1,-1.382737398E0,-1.648499966E0
1.934564123E0,6.655728221E-1,-1.227888584E0,-1.825451851E0
1.944455123E0,6.865583062E-1,-1.068365335E0,-2.006552219E0
1.954395123E0,6.574975848E-1,-9.031639099E-1,-2.076859951E0
1.965487123E0,5.909496546E-1,-7.048227787E-1,-2.061622143E0
1.974885123E0,5.431368947E-1,-5.124371052E-1,-1.924105167E0
1.985307123E0,5.520529151E-1,-3.734493256E-1,-1.631231308E0
1.994370123E0,5.724807978E-1,-2.544779778E-1,-1.230790138E0
2.004537123E0,5.853013992E-1,-1.564984322E-1,-6.810193062E-1
2.014387123E0,5.563482046E-1,-4.991054535E-2,-8.760833740E-2
2.025154123E0,5.389819145E-1,4.282665253E-2,4.565906525E-1
2.034499123E0,6.402190924E-1,1.083326340E-2,9.119510651E-1
2.045590123E0,7.683598995E-1,1.706933975E-2,1.192676544E0
2.054739123E0,7.888635993E-1,1.066589355E-1,1.202214241E0
2.064558123E0,7.187281847E-1,1.407985687E-1,1.165641785E0
2.074483123E0,5.277375579E-1,1.689219475E-1,1.060009956E0
2.084927123E0,-2.481830120E-2,2.753582001E-1,9.480190277E-1
2.094375123E0,-3.037321568E-2,2.878398895E-1,9.415636063E-1
2.104529123E0,-3.387222290E-1,3.114771843E-1,1.452038765E0
2.114454123E0,-4.741016626E-1,3.707470894E-1,1.897725105E0
2.124738123E0,-6.138455868E-1,4.148707390E-1,2.383758545E0
2.136548123E0,-6.978948116E-1,4.245867729E-1,2.889320374E0
2.145772123E0,-7.165730000E-1,4.258227348E-1,3.292450905E0
2.154682123E0,-6.780043244E-1,4.769325256E-1,3.571828842E0
2.164501123E0,-6.047842503E-1,5.605106354E-1,3.611102104E0
2.174807123E0,-4.919483066E-1,6.253957748E-1,3.395287514E0
2.184870123E0,-2.764866948E-1,6.569266319E-1,3.029350281E0
2.194474123E0,-5.243200064E-2,7.357754707E-1,2.692010880E0
2.204617123E0,1.359802485E-1,8.282160759E-1,2.424280167E0
2.214416123E0,3.575215042E-1,9.390735626E-1,2.333149910E0
2.224504123E0,8.155413270E-1,7.232480049E-1,2.501738548E0
2.234421123E0,1.269459486E0,2.269759178E-1,2.859651566E0
2.244419123E0,1.515756488E0,-2.609694004E-1,3.269832611E0
2.254628123E0,1.511699200E0,-7.084188461E-1,3.344213486E0
2.265966123E0,1.376655579E0,-1.118040562E0,3.022632599E0
2.274658123E0,1.014324188E0,-1.633181334E0,3.085556030E0
2.284355123E0,4.144987464E-1,-1.963235140E0,2.742438316E0
2.294289123E0,-1.396303773E-1,-2.152319908E0,1.795109749E0
2.304857123E0,-4.302505851E-1,-2.361682892E0,9.885225296E-1
2.314528123E0,-5.204585791E-1,-2.574360609E0,4.108638763E-1
2.324688123E0,-6.047306061E-1,-2.610847235E0,-1.466560364E-2
2.334747123E0,-5.784451365E-1,-2.511057377E0,-5.292711258E-1
2.344768123E0,-2.643759847E-1,-2.515290260E0,-9.745059013E-1
2.354813123E0,1.520388126E-1,-2.526595831E0,-1.234314442E0
2.364518123E0,5.603926182E-1,-2.401638031E0,-1.336127281E0
2.374335123E0,1.036924601E0,-2.256901503E0,-1.365288258E0
2.384889123E0,1.482528448E0,-2.197985411E0,-1.316085815E0
2.394829123E0,1.786059618E0,-2.111476898E0,-1.166165829E0
2.404494123E0,1.858121634E0,-2.011295557E0,-1.016026497E0
2.415659123E0,1.777375340E0,-1.962965965E0,-7.835822105E-1
2.424517123E0,1.606935263E0,-1.936280012E0,-5.849065781E-1
2.434363123E0,1.379067540E0,-1.939352989E0,-5.100803375E-1
2.445097123E0,1.079737425E0,-1.907552719E0,-6.163959503E-1
2.454350123E0,7.922494411E-1,-1.833595514E0,-7.837476730E-1
2.464336123E0,5.198537707E-1,-1.747512817E0,-1.015688419E0
2.474532123E0,3.400412202E-1,-1.596625805E0,-1.216396332E0
2.484481123E0,2.622122765E-1,-1.467730522E0,-1.524822712E0
2.494716123E0,2.634929419E-1,-1.279799700E0,-1.967963696E0
2.504964123E0,3.932816982E-1,-1.132293701E0,-2.209211349E0
2.514389123E0,5.304479599E-1,-9.874641895E-1,-2.372473717E0
2.524761123E0,6.424443126E-1,-8.093819618E-1,-2.442457199E0
2.534372123E0,7.188411951E-1,-6.728303432E-1,-2.560483932E0
2.544635123E0,7.091670632E-1,-5.403380394E-1,-2.663874149E0
2.554858123E0,6.715313196E-1,-4.363315105E-1,-2.606362343E0
2.564401123E0,6.672843695E-1,-3.693919182E-1,-2.239955425E0
2.574887123E0,6.118331552E-1,-3.039236069E-1,-1.916222572E0
2.584537123E0,6.601381302E-1,-2.710456848E-1,-1.590625763E0
2.594902123E0,7.308424115E-1,-3.127708435E-1,-1.099842548E0
2.604450123E0,6.987707615E-1,-3.054535389E-1,-8.261775970E-1
2.614412123E0,5.320030451E-1,-2.149486542E-1,-5.675668716E-1
2.624669123E0,3.910186291E-1,-1.687486172E-1,-9.305763245E-2
2.634432123E0,2.799313068E-1,-1.104774475E-1,-2.850627899E-2
2.644593123E0,3.250401020E-1,-1.020224094E-1,2.313699722E-1
2.655702123E0,3.139241934E-1,-4.842710495E-2,3.261137009E-1
2.664410123E0,2.829523087E-1,1.462364197E-2,3.774738312E-1
2.674677123E0,3.261557817E-1,9.726214409E-2,4.752168655E-1
2.684516123E0,3.059188128E-1,2.010009289E-1,6.282320023E-1
2.694388123E0,2.164474726E-1,2.702565193E-1,9.441556931E-1
2.704507123E0,1.325440407E-1,3.692350388E-1,1.399670601E0
2.714354123E0,5.908977985E-2,4.265110493E-1,1.899668694E0
2.724416123E0,-8.630430698E-2,4.553039074E-1,2.534419060E0
2.734409123E0,-2.594397068E-1,5.254471302E-1,3.217863083E0
2.744770123E0,-3.602852821E-1,5.722932816E-1,3.618620872E0
2.755131123E0,-1.742875576E-1,6.921250820E-1,3.501679420E0
2.764501123E0,3.065856695E-1,9.232757092E-1,2.741238594E0
2.774625123E0,5.151118040E-1,9.249305725E-1,3.136986732E0
2.785051123E0,4.695007801E-1,1.108237028E0,3.647000313E0
2.794402123E0,5.004043579E-1,1.359781027E0,3.896669388E0
2.804532123E0,5.044125319E-1,1.604348898E0,3.801689148E0
2.814283123E0,2.027164698E-1,1.945127487E0,4.439666748E0
2.824948123E0,1.339387894E-2,1.525645018E0,6.235195160E0
2.834671123E0,1.076405287E0,1.543436050E-1,7.035760880E0
2.844536123E0,1.109096050E0,3.370649815E-1,6.097929955E0
2.856413123E0,1.097267985E0,1.085445881E-1,5.140062332E0
2.864433123E0,1.163493037E0,-6.862905025E-1,4.488923073E0
2.874595123E0,8.866297007E-1,-1.417753696E0,3.517288208E0
2.884589123E0,4.196897745E-1,-2.093729734E0,2.692317963E0
2.894290123E0,-1.388559341E-1,-2.524448872E0,1.766626358E0
2.905223123E0,-6.845088005E-1,-2.730444431E0,8.717556000E-1
2.914525123E0,-1.037990928E0,-2.847043037E0,3.294048309E-1
2.924657123E0,-1.139737487E0,-2.923351288E0,-5.191612244E-2
2.934415123E0,-1.067404270E0,-2.913628817E0,-3.376178741E-1
2.944978123E0,-8.731814623E-1,-2.870067596E0,-6.709084511E-1
2.957600123E0,-6.351404190E-1,-2.830021858E0,-1.001314640E0
2.974517123E0,-2.423026562E-1,-2.640058041E0,-1.758252144E0
2.984506123E0,-2.933049202E-2,-2.562307835E0,-2.018667698E0
2.994545123E0,2.326490879E-1,-2.520369530E0,-2.255138874E0
3.004861123E0,4.653238058E-1,-2.550603867E0,-2.422204018E0
3.014387123E0,6.575161219E-1,-2.614021301E0,-2.350921631E0
3.024560123E0,7.418680191E-1,-2.712619781E0,-2.042581558E0
3.037531123E0,7.512574196E-1,-2.833853006E0,-1.639691830E0
3.054422123E0,4.615715742E-1,-2.953654289E0,-7.600860596E-1
3.064819123E0,3.208718300E-1,-2.931746244E0,-3.049583435E-1
3.075850123E0,2.499017715E-1,-2.853838921E0,5.107975006E-2
3.084525123E0,2.121640444E-1,-2.742725849E0,2.426996231E-1
3.094539123E0,2.487426996E-1,-2.612647772E0,1.105470657E-1
3.104395123E0,3.166974783E-1,-2.461977959E0,-2.401733398E-1
3.114638123E0,3.772714138E-1,-2.269007206E0,-6.358399391E-1
3.125051123E0,5.016863346E-1,-2.038203478E0,-1.037460804E0
3.134445123E0,6.930044889E-1,-1.845180511E0,-1.410372734E0
3.144334123E0,8.582044840E-1,-1.672797918E0,-1.692888737E0
3.154720123E0,9.845716953E-1,-1.504091024E0,-1.955467701E0
3.164507123E0,1.109319687E0,-1.369301796E0,-2.162118912E0
3.174428123E0,1.110597372E0,-1.216518879E0,-2.290746212E0
3.184375123E0,7.654830217E-1,-7.970724106E-1,-2.385134220E0
3.194511123E0,2.420614958E-1,-2.679569721E-1,-2.445174217E0
3.204557123E0,4.992899895E-1,-1.007833481E-1,-2.284448147E0
3.214790123E0,-4.403116703E-1,3.954668045E-1,-1.431922913E0
3.224438123E0,2.777104378E-1,6.278507710E-1,-1.419387341E0
3.234369123E0,8.729498386E-1,-2.259755135E-1,-1.330838680E0
3.244510123E0,1.139192343E0,-1.082485676E0,-7.700152397E-1
3.254485123E0,9.693957567E-1,-8.536162376E-1,-1.910238266E-1
3.264391123E0,5.229583979E-1,-2.914013863E-1,-2.255325317E-1
3.275829123E0,1.327276230E-3,2.691977024E-1,-1.275081635E-1
3.287567123E0,-2.946317196E-1,4.902136326E-1,1.381111145E-1
3.305003123E0,-6.607372761E-1,1.309900284E-1,7.776012421E-1
3.314384123E0,-8.512542248E-1,2.227561474E-1,9.738016129E-1
3.324501123E0,-1.152340174E0,2.765762806E-1,1.174635887E0
3.337401123E0,-1.394921303E0,2.665848732E-1,1.410362244E0
3.355007123E0,-1.615782738E0,1.817719936E-1,1.880349159E0
3.364997123E0,-1.765849590E0,2.129628658E-1,2.330504417E0
3.374691123E0,-1.798700094E0,2.379994392E-1,3.016536713E0
3.384767123E0,-1.808632851E0,1.527976990E-1,3.152561188E0
3.394338123E0,-1.664374828E0,1.651728153E-1,3.701549530E0
3.406364123E0,-1.784187555E0,1.673574448E-1,4.040866852E0
3.414745123E0,-1.710157633E0,1.385872364E-1,3.938088417E0
3.424569123E0,-1.612389445E0,3.638169765E-1,4.466451645E0
3.435856123E0,-1.585877895E0,6.369388103E-1,4.175979614E0
3.444380123E0,-1.375579953E0,7.302563190E-1,4.071572304E0
3.454601123E0,-9.830092192E-1,7.360603809E-1,4.010615349E0
3.464309123E0,-4.251816273E-1,6.500172615E-1,3.612942696E0
3.474300123E0,2.158349752E-1,2.825140953E-1,3.603187561E0
3.484473123E0,6.824787855E-1,-1.942348480E-1,3.685339928E0
3.494423123E0,8.604929447E-1,-7.357835770E-1,3.599212646E0
3.504378123E0,7.555853724E-1,-1.173627973E0,3.360782623E0
3.514383123E0,5.150783062E-1,-1.530179501E0,2.838887215E0
3.524526123E0,2.886453867E-1,-1.814262390E0,2.209597588E0
3.534531123E0,1.865618229E-1,-1.988967896E0,1.433336258E0
3.544878123E0,1.145952940E-1,-2.232022285E0,3.407754898E-1
3.554430123E0,1.667112112E-1,-2.334813595E0,-5.923347473E-1
3.564462123E0,2.743914127E-1,-2.221041203E0,-1.053189278E0
3.574731123E0,4.166952372E-1,-2.004022121E0,-1.498025894E0
3.584553123E0,1.954059601E-1,-1.297943592E0,-1.967322826E0
3.594500123E0,4.865741730E-2,-5.253598690E-1,-1.935319901E0
3.608760123E0,1.489122868E0,-2.034611702E0,-2.938880920E-1
3.624397123E0,1.685020208E0,-2.110871315E0,-3.479337692E-1
3.634527123E0,1.456622005E0,-1.542043567E0,-7.370595932E-1
3.644416123E0,1.268031001E0,-1.319362164E0,-9.604215622E-1
3.654387123E0,1.339731336E0,-1.574622273E0,-8.273420334E-1
3.664803123E0,1.523094296E0,-2.010093689E0,-6.139945984E-1
3.674337123E0,1.662840962E0,-2.405408859E0,-3.923587799E-1
3.684446123E0,1.551972866E0,-2.589788914E0,-5.274877548E-1
3.696058123E0,1.295394421E0,-2.431445599E0,-1.150418758E0
3.704433123E0,1.220217466E0,-2.426114798E0,-1.162072659E0
3.714407123E0,1.000867009E0,-2.149194717E0,-2.232190132E0
3.724707123E0,8.937016726E-1,-1.666571617E0,-2.506054878E0
3.735066123E0,9.948714375E-1,-1.538421750E0,-2.615161419E0
3.744973123E0,8.958004117E-1,-1.288786650E0,-2.636038303E0
3.755715123E0,8.563714623E-1,-1.085291862E0,-2.720163345E0
3.764685123E0,8.578240871E-1,-9.688997269E-1,-2.543415070E0
3.775131123E0,7.736284733E-1,-8.380196095E-1,-2.246922970E0
3.784652123E0,5.628092885E-1,-6.622312069E-1,-1.872804642E0
3.794574123E0,1.756299734E-1,-3.083641529E-1,-1.488656521E0
3.809659123E0,-1.443620920E-1,-1.396894455E-2,-1.819420338E0
3.824464123E0,-1.315431595E-1,-9.432315826E-2,-2.653190136E0
3.836596123E0,-5.440044403E-2,-1.445224285E-1,-1.983891010E0
3.844608123E0,-8.231341839E-2,-3.204822540E-2,-1.415755749E0
3.854471123E0,-1.520295143E-1,1.253230572E-1,-1.049979687E0
3.864410123E0,-1.715391874E-1,2.103703022E-1,-6.342687607E-1
3.874417123E0,-2.185897827E-1,2.293553352E-1,-1.818523407E-1
3.885185123E0,-2.598121166E-1,2.285144329E-1,3.490972519E-1
3.894450123E0,-1.958494186E-1,2.038638592E-1,8.452501297E-1
3.905228123E0,-5.107927322E-2,1.575865746E-1,1.206534386E0
3.914335123E0,2.071559429E-2,1.260447502E-1,1.403967857E0
3.924640123E0,-7.681727409E-2,1.114954948E-1,1.597199440E0
3.934889123E0,-2.336990833E-1,1.408641338E-1,1.725162506E0
3.944576123E0,-3.645452261E-1,1.558511257E-1,1.786865234E0
3.956726123E0,-4.438979626E-1,1.673061848E-1,1.959076881E0
3.974602123E0,-3.763945103E-1,1.887700558E-1,2.700675964E0
3.985879123E0,-1.720554829E-1,1.061582565E-1,3.148442268E0
3.994424123E0,8.116209507E-2,9.449172020E-2,3.517818451E0
4.006118123E0,2.285155058E-1,1.846780777E-1,3.696498871E0
4.014426123E0,3.224997520E-1,3.219673634E-1,3.872009277E0
4.024637123E0,3.981974125E-1,5.145666599E-1,4.021931648E0
4.034407123E0,4.830632210E-1,7.159609795E-1,4.065073013E0
4.044490123E0,5.519189835E-1,8.987839222E-1,3.938938141E0
4.054389123E0,6.227209568E-1,1.047070980E0,3.808102608E0
4.064700123E0,8.182941675E-1,1.087609768E0,3.647876740E0
4.074388123E0,1.340970993E0,9.425120354E-1,2.941235542E0
4.084667123E0,2.024750233E0,7.717933655E-1,8.416862488E-1
4.099056123E0,1.355775833E0,-8.645591736E-1,4.293721199E0
4.114345123E0,2.729980946E-1,-1.297138691E0,5.065187454E0
4.124835123E0,-6.130211353E-1,-1.511311293E0,4.486751556E0
4.135748123E0,-1.028930426E0,-1.887086391E0,3.408626556E0
4.144828123E0,-1.332507491E0,-2.236508369E0,2.181643486E0
4.154675123E0,-1.533211946E0,-2.408396244E0,1.121050835E0
4.164835123E0,-1.553508520E0,-2.425373077E0,2.279510498E-1
4.174498123E0,-1.350585818E0,-2.392283440E0,-5.756654739E-1
4.185007123E0,-1.003249645E0,-2.354682922E0,-1.286606789E0
4.196049123E0,-3.868250847E-1,-2.282008886E0,-2.424656391E0
4.204376123E0,-4.106678963E-1,-2.364785910E0,-2.387099743E0
4.214578123E0,-2.779716253E-1,-2.266002417E0,-2.527539730E0
4.224436123E0,-2.197892666E-1,-2.209252357E0,-2.460799694E0
4.234467123E0,-1.154249907E-1,-2.250170708E0,-2.109730721E0
4.244378123E0,-1.999390125E-2,-2.380282640E0,-1.618696690E0
4.254463123E0,6.115913391E-2,-2.532315493E0,-7.243890762E-1
4.264938123E0,6.926381588E-2,-2.778356075E0,-1.537523270E-1
4.274446123E0,6.559419632E-2,-2.794290543E0,1.980371475E-1
4.284371123E0,1.039248705E-1,-2.824123859E0,3.380661011E-1
4.294326123E0,8.287048340E-2,-2.845810890E0,2.271852493E-1
4.304404123E0,-4.584097862E-2,-2.782061577E0,-4.742050171E-2
4.314427123E0,-2.077833414E-1,-2.626474857E0,-3.365011215E-1
4.324380123E0,-2.899608612E-1,-2.479440689E0,-6.245384216E-1
4.335737123E0,-1.980416775E-1,-2.334100962E0,-9.399180412E-1
4.344498123E0,-2.843928337E-2,-2.240616560E0,-1.235083103E0
4.354429123E0,1.489413977E-1,-2.135248423E0,-1.545965195E0
4.364542123E0,2.683715820E-1,-1.974932194E0,-1.770877361E0
4.375029123E0,3.516585827E-1,-1.888192415E0,-1.943562031E0
4.384522123E0,3.651188612E-1,-1.833393335E0,-2.071362972E0
4.394768123E0,2.380120754E-1,-1.685889244E0,-2.151982307E0
4.405827123E0,1.007444859E-1,-1.489386797E0,-2.139262676E0
4.414332123E0,3.485894203E-2,-1.324367762E0,-2.103446484E0
4.424567123E0,8.793234825E-3,-1.167247295E0,-2.047856808E0
4.434386123E0,-4.529774189E-2,-9.794089794E-1,-2.008469105E0
4.444419123E0,-8.865725994E-2,-7.631337643E-1,-1.820833206E0
4.454341123E0,-1.172279119E-1,-5.018820763E-1,-1.589653969E0
4.464503123E0,-6.735360622E-2,-3.209111691E-1,-1.298064709E0
4.475705123E0,-5.079936981E-2,-1.765232086E-1,-9.178323746E-1
4.484578123E0,-4.952120781E-2,-9.811258316E-2,-5.203847885E-1
4.494512123E0,-1.135420799E-1,-7.384443283E-2,-1.983718872E-1
4.504607123E0,-2.567040920E-1,1.911211014E-2,2.916679382E-1
4.514421123E0,-4.073764086E-1,1.183395386E-1,8.097066879E-1
4.524990123E0,-5.062825680E-1,1.225581169E-1,1.172060013E0
4.534350123E0,-6.361666918E-1,1.382606030E-1,1.504597664E0
4.544710123E0,-6.452012062E-1,2.325761318E-1,1.745856285E0
4.554519123E0,-7.017256021E-1,2.659883499E-1,1.903045654E0
4.564672123E0,-7.348811626E-1,3.010692596E-1,2.016037941E0
4.574872123E0,-7.066899538E-1,3.285794258E-1,2.128328323E0
4.584479123E0,-6.915888786E-1,3.084659576E-1,2.417468071E0
4.594852123E0,-6.510326862E-1,3.198733330E-1,2.742215157E0
4.604377123E0,-5.877697468E-1,2.792885303E-1,3.009213448E0
4.614320123E0,-5.063091516E-1,3.001923561E-1,3.147954941E0
4.624448123E0,-4.388697147E-1,4.072854519E-1,3.138220787E0
4.635009123E0,-3.054441214E-1,5.182850361E-1,3.083290100E0
4.644905123E0,-4.476094246E-2,6.115646362E-1,3.062767982E0
4.654661123E0,1.545584202E-1,7.817511559E-1,3.163127899E0
4.664526123E0,3.405116796E-1,9.359283447E-1,3.434987068E0
4.676112123E0,6.256611943E-1,9.136672020E-1,3.806362152E0
4.684392123E0,1.061648846E0,6.663196087E-1,4.286133766E0
4.695597123E0,1.522186518E0,2.491858006E-1,4.505994797E0
4.704421123E0,1.716573238E0,-2.617654800E-1,4.388168335E0
4.714601123E0,1.563448906E0,-7.242720127E-1,4.071031570E0
4.724557123E0,1.136471748E0,-1.101427317E0,3.742295265E0
4.734668123E0,6.058846116E-1,-1.378226519E0,3.330018997E0
4.744800123E0,2.444264889E-1,-1.747370720E0,2.740222931E0
4.754764123E0,1.236364841E-1,-2.210688829E0,2.074359894E0
4.765611123E0,1.078556776E-1,-2.540136576E0,4.843149185E-1
4.774427123E0,1.519700289E-1,-2.593117476E0,5.148115158E-1
4.784644123E0,2.852392197E-1,-2.525528431E0,-8.923454285E-1
4.794711123E0,1.075896025E0,-2.333765984E0,-1.392331600E0
4.804366123E0,1.664837956E0,-2.318499327E0,-1.771592140E0
4.814352123E0,2.234505415E0,-2.206743717E0,-1.939988136E0
4.824334123E0,2.674046993E0,-2.071516752E0,-2.030905247E0
4.836075123E0,2.925476074E0,-1.966348648E0,-2.043800831E0
4.844528123E0,2.941766739E0,-1.882489920E0,-1.976733208E0
4.854478123E0,2.769602776E0,-1.820627928E0,-1.837203979E0
4.864617123E0,2.442134619E0,-1.804420948E0,-1.645708084E0
4.874972123E0,2.011245728E0,-1.798280478E0,-1.402450562E0
4.884906123E0,1.557503581E0,-1.690198660E0,-1.140501499E0
4.894520123E0,1.180740595E0,-1.536728859E0,-8.672471046E-1
4.904946123E0,9.613363743E-1,-1.361658335E0,-6.519298553E-1
4.914435123E0,9.286017418E-1,-1.220592737E0,-5.520534515E-1
4.924575123E0,1.031988621E0,-1.098505020E0,-6.502676010E-1
4.934529123E0,1.151201010E0,-9.411020279E-1,-9.075593948E-1
4.944696123E0,1.270474672E0,-7.996704578E-1,-1.240405560E0
4.954796123E0,1.343281746E0,-7.070000172E-1,-1.525484085E0
4.964645123E0,1.331874132E0,-5.613780022E-1,-1.812217236E0
4.975622123E0,1.275818110E0,-4.274036884E-1,-2.017035007E0
4.984666123E0,1.216554761E0,-3.144629002E-1,-2.155095100E0
4.994535123E0,1.192289233E0,-1.985898018E-1,-2.218086720E0
5.004397123E0,1.200168490E0,-1.190114021E-1,-2.160461903E0
5.014465123E0,1.240586877E0,-8.315563202E-3,-2.089173794E0
5.025179123E0,1.287781239E0,7.625627518E-2,-1.949135303E0
5.034535123E0,1.296864271E0,1.667647362E-1,-1.777735233E0
5.044495123E0,1.216593504E0,2.784342766E-1,-1.536951065E0
5.054439123E0,1.114775538E0,3.597846031E-1,-1.165437222E0
5.064795123E0,1.012650728E0,4.260668755E-1,-7.312669754E-1
5.074444123E0,8.859311342E-1,4.943089485E-1,-3.076992035E-1
5.084838123E0,7.386987209E-1,5.489690304E-1,1.050348282E-1
5.094519123E0,5.739994049E-1,6.363804340E-1,5.127573013E-1
5.104441123E0,4.663399458E-1,7.174928188E-1,9.734954834E-1
5.114458123E0,5.062423944E-1,7.016575336E-1,1.432542801E0
5.124535123E0,5.395488739E-1,6.513171196E-1,1.807775497E0
5.134700123E0,1.371426582E-1,5.720782280E-1,2.170233727E0
5.144838123E0,-8.286309242E-2,5.866262913E-1,2.406277657E0
5.154528123E0,-2.967443466E-1,5.562083721E-1,2.412556648E0
5.164444123E0,-4.893305302E-1,4.923536777E-1,2.382335663E0
5.174388123E0,-5.973634720E-1,3.987181187E-1,2.321499825E0
5.184387123E0,-6.026327610E-1,2.526822090E-1,2.212309837E0
5.195409123E0,-5.567424297E-1,1.056427956E-1,2.066587448E0
5.205374123E0,-5.881321430E-1,1.548585892E-1,1.930519104E0
5.214413123E0,-6.037523746E-1,3.687334061E-1,1.965288162E0
5.224397123E0,-4.475281239E-1,6.150627136E-1,2.319082260E0
5.234434123E0,-9.482097626E-2,7.307233810E-1,2.663265228E0
5.245323123E0,2.349119186E-1,8.135643005E-1,2.969115257E0
5.254760123E0,4.350056648E-1,9.124374390E-1,3.202324867E0
5.264820123E0,6.477360725E-1,8.671236038E-1,3.353209496E0
5.274478123E0,1.006022096E0,6.239657402E-1,3.483734131E0
5.284676123E0,1.442065954E0,1.573119164E-1,3.665655136E0
5.294477123E0,1.717275620E0,-4.525415897E-1,3.785193443E0
5.304810123E0,1.609534264E0,-1.112511396E0,3.402480125E0
5.315970123E0,4.046525955E-1,-2.112447023E0,2.879942894E0
5.324874123E0,-2.834563255E-1,-2.399691105E0,2.244797707E0
5.334391123E0,-7.621376514E-1,-2.552272797E0,1.534340858E0
5.344612123E0,-1.198322892E0,-2.500525951E0,1.208172798E0
5.354569123E0,-1.429959059E0,-2.404652119E0,7.441263199E-1
5.364467123E0,-1.289438009E0,-2.337878942E0,2.728109360E-1
5.374405123E0,-9.441920519E-1,-2.355524063E0,-1.186075211E-1
5.384415123E0,-5.134788752E-1,-2.346766472E0,-4.981927872E-1
5.394762123E0,-1.858557463E-1,-2.278133869E0,-9.270987511E-1
5.404352123E0,9.226155281E-2,-2.176211357E0,-1.341930866E0
5.414494123E0,3.231546879E-1,-2.102959633E0,-1.624914646E0
5.424710123E0,5.004475117E-1,-2.028496027E0,-1.795167446E0
5.435429123E0,5.913183689E-1,-2.001477957E0,-1.850220680E0
5.444833123E0,6.366858482E-1,-2.037453890E0,-1.779196739E0
5.454513123E0,5.933240652E-1,-2.083413363E0,-1.712530613E0
5.464722123E0,4.789908528E-1,-2.096058369E0,-1.567994595E0
5.474507123E0,3.180214167E-1,-2.078919172E0,-1.354847908E0
5.484467123E0,1.080907583E-1,-2.053705454E0,-1.134478092E0
5.494380123E0,-1.584203243E-1,-1.951592207E0,-8.737568855E-1
5.504658123E0,-3.874462843E-1,-1.844707251E0,-6.736507416E-1
5.514489123E0,-5.158581734E-1,-1.760568857E0,-5.942783356E-1
5.524681123E0,-5.554703474E-1,-1.680117846E0,-6.268882751E-1
5.535903123E0,-5.055347681E-1,-1.539463043E0,-7.034769058E-1
5.544602123E0,-4.114468098E-1,-1.434548378E0,-7.751793861E-1
5.554333123E0,-3.228627443E-1,-1.347331524E0,-8.296780586E-1
5.564714123E0,-2.557578087E-1,-1.268181324E0,-9.742321968E-1
5.574499123E0,-1.929253340E-1,-1.167992115E0,-1.229112148E0
5.584429123E0,-1.732950211E-1,-1.075818300E0,-1.498030663E0
5.594464123E0,-1.639673710E-1,-9.488966465E-1,-1.740512848E0
5.604511123E0,-1.007816792E-1,-7.820823193E-1,-1.890492916E0
5.614679123E0,2.562415600E-2,-6.177361012E-1,-1.869705677E0
5.624667123E0,1.868405342E-1,-5.033757687E-1,-1.781030178E0
5.634515123E0,3.176093102E-1,-3.795626163E-1,-1.595448971E0
5.644835123E0,4.286468029E-1,-2.349383831E-1,-1.370315552E0
5.654597123E0,5.143320560E-1,-1.136710644E-1,-1.127983570E0
5.664565123E0,5.847166181E-1,-5.092310905E-2,-8.611536026E-1
5.674394123E0,5.942250490E-1,1.205635071E-2,-5.884685516E-1
5.684422123E0,5.857355595E-1,2.142477036E-2,-4.014377594E-1
5.694899123E0,5.700225830E-1,5.707740784E-4,-1.811475754E-1
5.704875123E0,5.763819814E-1,-2.933955193E-2,-1.596069336E-2
5.714746123E0,5.478829145E-1,-2.920126915E-2,1.788024902E-1
5.726606123E0,4.722304940E-1,1.979947090E-2,3.956708908E-1
5.744372123E0,2.612993717E-1,1.824932098E-1,1.026926994E0
5.754419123E0,1.282337904E-1,2.233605385E-1,1.207674980E0
5.764751123E0,7.153433561E-2,2.654936314E-1,1.280414581E0
5.775197123E0,-1.300358772E-2,3.060116768E-1,1.419512749E0
5.784663123E0,-1.445225477E-1,3.263690472E-1,1.508061409E0
5.794492123E0,-2.382323742E-1,3.790140152E-1,1.648170471E0
5.804763123E0,-2.191407681E-1,3.926098347E-1,1.876582146E0
5.814581123E0,-1.148424149E-1,3.415112495E-1,2.138091087E0
5.825240123E0,-6.529575586E-2,5.618691444E-1,2.986859322E0
5.835675123E0,-1.040293574E-1,5.576794147E-1,2.984713554E0
5.844475123E0,-1.000022292E-1,7.802252769E-1,3.569758415E0
5.859080123E0,1.459795833E-1,9.458496571E-1,4.760345459E0
5.874475123E0,5.940481424E-1,5.284416676E-1,4.838308334E0
5.884660123E0,9.162286520E-1,1.887419224E-1,4.439426422E0
5.894542123E0,1.335407495E0,-3.420753479E-1,4.075325966E0
5.904480123E0,1.723113060E0,-7.010283470E-1,2.929597855E0
5.914281123E0,1.274021626E0,-1.061622381E0,3.057570457E0
5.924387123E0,8.112941980E-1,-1.532117367E0,3.091418266E0
5.934478123E0,1.989209652E-2,-1.619633913E0,2.618006706E0
5.944505123E0,-4.430844188E-1,-1.887479067E0,2.400896072E0
5.956751123E0,-6.501608491E-1,-2.381905794E0,1.987141609E0
5.974494123E0,-1.021477461E0,-2.879250526E0,1.227483749E-1
5.984722123E0,-1.208735347E0,-2.723891258E0,-7.709817886E-1
5.994648123E0,-1.217589140E0,-2.448599815E0,-1.510697842E0
6.004593123E0,-9.171077013E-1,-2.200338840E0,-2.014019012E0
6.014561123E0,-3.343377709E-1,-2.006450415E0,-2.188077450E0
6.024515123E0,3.667656779E-1,-1.898780107E0,-2.221335411E0
6.034451123E0,1.013937950E0,-1.831740618E0,-2.160105228E0
6.044697123E0,1.448408842E0,-1.763528824E0,-2.003453255E0
6.054371123E0,1.679961443E0,-1.757606506E0,-1.888773441E0
6.064428123E0,1.669690371E0,-1.802859306E0,-1.727173328E0
6.076064123E0,1.437749386E0,-1.864023447E0,-1.553096771E0
6.084566123E0,1.042156100E0,-1.884446144E0,-1.399647236E0
6.094479123E0,6.025103927E-1,-1.820103407E0,-1.226402283E0
6.105111123E0,2.167689204E-1,-1.723706245E0,-1.097249508E0
6.114527123E0,-8.963954449E-2,-1.620507479E0,-1.039257050E0
6.125155123E0,-2.333505154E-1,-1.514980793E0,-1.118634224E0
6.134352123E0,-2.423475981E-1,-1.422083855E0,-1.326786995E0
6.144893123E0,-1.417150497E-1,-1.255963802E0,-1.629942417E0
6.154490123E0,6.480240822E-2,-1.054373741E0,-2.006331444E0
6.164394123E0,3.120410442E-1,-9.001441002E-1,-2.370270729E0
6.174329123E0,4.913322926E-1,-7.807023525E-1,-2.689738274E0
6.184322123E0,6.044036746E-1,-7.062897682E-1,-2.878122330E0
6.195668123E0,5.931257606E-1,-6.491935253E-1,-2.889646053E0
6.204481123E0,4.439584017E-1,-5.165028572E-1,-2.745373249E0
6.214354123E0,3.439761400E-1,-3.543691635E-1,-2.351028442E0
6.227355123E0,3.985588551E-1,-2.420141697E-1,-1.583631039E0
6.244501123E0,2.743805647E-1,-1.003310680E-1,-6.167211533E-1
6.254400123E0,8.332014084E-2,3.579998016E-2,-4.781360626E-1
6.264568123E0,-1.023161411E-1,1.648831367E-1,-4.196872711E-1
6.274685123E0,1.357126236E-2,9.600567818E-2,-2.973575592E-1
6.284366123E0,2.452682257E-1,1.876354218E-3,-1.590414047E-1
6.294295123E0,3.469543457E-1,1.785278320E-2,3.322458267E-1
6.305985123E0,3.010265827E-1,1.441876888E-1,8.447036743E-1
6.314448123E0,2.448017597E-1,2.117688656E-1,1.551674843E0
6.324646123E0,2.484503984E-1,1.710822582E-1,1.838782310E0
6.341589123E0,7.767772675E-2,1.083974838E-1,1.584080696E0
6.354514123E0,-1.812903881E-1,1.464624405E-1,1.209742546E0
6.364599123E0,-3.121031523E-1,1.844844818E-1,8.700141907E-1
6.374348123E0,-1.617584229E-1,-4.003190994E-2,7.922906876E-1
6.384340123E0,2.498352528E-2,-2.084605694E-1,9.972915649E-1
6.396663123E0,-1.240714788E-1,3.295800686E-1,1.876599312E0
6.414327123E0,-2.037234306E-1,7.317922115E-1,2.757908821E0
6.424557123E0,-3.007739782E-1,1.028062344E0,3.124983788E0
6.434342123E0,-3.946666718E-1,1.258843422E0,3.365899086E0
6.444657123E0,-1.829816103E-1,1.251183987E0,3.361808777E0
6.454312123E0,4.124043584E-1,8.052601814E-1,3.348917007E0
6.465237123E0,9.964866042E-1,1.585292816E-2,3.183530807E0
6.474396123E0,1.326246858E0,-6.115157604E-1,2.934896469E0
6.484572123E0,1.487025738E0,-1.044337034E0,2.768521309E0
6.495490123E0,1.463953972E0,-1.371874332E0,2.765677452E0
6.505065123E0,1.211285233E0,-1.621980429E0,2.782962799E0
6.514386123E0,8.538894653E-1,-1.820164680E0,2.496740341E0
6.524373123E0,4.669200480E-1,-2.036057949E0,2.004945755E0
6.534352123E0,2.713483572E-2,-2.224160671E0,1.369686127E0
6.545482123E0,-4.009152651E-1,-2.242166996E0,7.068872452E-1
6.554402123E0,-7.111510038E-1,-2.149161816E0,6.294822693E-2
6.564471123E0,-8.223733902E-1,-2.161865234E0,-5.856580734E-1
6.574537123E0,-8.385411501E-1,-2.064913273E0,-9.198703766E-1
6.584334123E0,-8.499172926E-1,-1.747249603E0,-9.529066086E-1
6.594568123E0,-7.529508471E-1,-1.500661373E0,-8.741846085E-1
6.604459123E0,-4.898779988E-1,-1.431772470E0,-7.160100937E-1
6.615682123E0,-1.611392498E-1,-1.461030245E0,-5.280380249E-1
6.624864123E0,4.272735119E-2,-1.545729399E0,-3.815660477E-1
6.634397123E0,3.457766771E-2,-1.631528378E0,-1.592817307E-1
6.644386123E0,-1.457278132E-1,-1.698124290E0,-6.607723236E-2
6.654351123E0,-3.773571551E-1,-1.725734711E0,-1.050996780E-1
6.664736123E0,-6.296545267E-1,-1.756493568E0,-1.558580399E-1
6.674507123E0,-8.013914824E-1,-1.772831559E0,-2.316598892E-1
6.684648123E0,-9.521669149E-1,-1.734634280E0,-3.719301224E-1
6.694356123E0,-1.037292480E0,-1.628739357E0,-4.327192307E-1
6.704522123E0,-9.896692038E-1,-1.535138488E0,-4.975919724E-1
6.715527123E0,-8.635982871E-1,-1.463190675E0,-5.950860977E-1
6.724798123E0,-7.568426132E-1,-1.346202374E0,-6.901397705E-1
6.734358123E0,-6.523318291E-1,-1.202838659E0,-7.619638443E-1
6.744765123E0,-5.076715946E-1,-1.077718258E0,-7.296056747E-1
6.757393123E0,-2.999965847E-1,-9.718117714E-1,-5.357818604E-1
6.774379123E0,-8.859401941E-2,-8.095545769E-1,-5.556068420E-1
6.784491123E0,-1.459965408E-1,-7.248334885E-1,-6.726789474E-1
6.794499123E0,-2.237797678E-1,-6.302378178E-1,-9.417400360E-1
6.804722123E0,-2.517403364E-1,-5.481786728E-1,-1.165390015E0
6.815490123E0,-2.292831093E-1,-4.701027870E-1,-1.324184895E0
6.824443123E0,-1.298849583E-1,-3.886659145E-1,-1.443387508E0
6.834800123E0,-8.788108826E-3,-2.905244827E-1,-1.461668491E0
6.844635123E0,7.672251761E-2,-1.876549721E-1,-1.392655849E0
6.854387123E0,1.232032031E-1,-1.240959167E-1,-1.200974941E0
6.864454123E0,1.916626096E-1,-7.011413574E-2,-7.980318069E-1
6.874672123E0,2.317999899E-1,-3.300642967E-2,-3.665266037E-1
6.884568123E0,2.194216847E-1,-1.991367340E-2,8.722877502E-2
6.895291123E0,2.362598926E-1,4.634642601E-2,1.041567802E0
6.904859123E0,2.736067176E-1,2.387762070E-2,1.417514801E0
6.914716123E0,2.639746964E-1,3.969502449E-2,1.411768913E0
6.925041123E0,6.048122048E-2,2.693271637E-2,1.749692917E0
6.934689123E0,-6.705658883E-2,3.933906555E-4,1.870957375E0
6.945117123E0,-1.816624701E-1,-6.019020081E-2,2.032229424E0
6.954796123E0,-3.143125772E-1,-7.250332832E-2,2.221407890E0
6.964703123E0,-4.410822093E-1,7.482528687E-3,2.533898354E0
6.977015123E0,-4.553907812E-1,1.003489494E-1,2.899188995E0
6.989791123E0,-9.841042757E-2,2.491652966E-1,3.487993240E0
7.004626123E0,2.680122256E-1,2.664225101E-1,3.534893036E0
7.014837123E0,7.341035604E-1,2.857317924E-1,3.471082687E0
7.025475123E0,1.374535203E0,1.763937473E-1,3.365547180E0
7.034976123E0,2.038728237E0,-1.600217819E-2,3.367353439E0
7.044996123E0,2.454992294E0,-1.187751293E-1,3.394233704E0
7.054703123E0,2.608809233E0,-1.907889843E-1,3.397937775E0
7.064779123E0,2.473612309E0,-4.206361771E-1,3.367876053E0
7.076718123E0,2.125648975E0,-8.753819466E-1,3.252364159E0
7.084725123E0,1.427324533E0,-1.338851929E0,3.040848732E0
7.095569123E0,5.730446577E-1,-1.688511491E0,2.640121460E0
7.104633123E0,-2.005759329E-1,-1.872362256E0,2.088467598E0
7.114950123E0,-7.461668253E-1,-1.993304491E0,1.609733582E0
7.124658123E0,-1.001068234E0,-2.080413103E0,1.175855637E0
7.134371123E0,-1.013030767E0,-2.031977654E0,7.619209290E-1
7.144641123E0,-8.252005577E-1,-1.864240885E0,3.575544357E-1
7.158677123E0,-4.532142580E-1,-1.657285452E0,-3.083324432E-2
7.174985123E0,1.091197968E0,-1.639228582E0,-8.225603104E-1
7.184885123E0,1.718284607E0,-1.623814106E0,-1.232400417E0
7.194457123E0,2.124053955E0,-1.595877171E0,-1.544610977E0
7.204637123E0,2.352649689E0,-1.579346180E0,-1.871017933E0
7.214412123E0,2.384708405E0,-1.571450233E0,-2.214029312E0
7.224819123E0,2.091645479E0,-1.564721584E0,-2.524384499E0
7.234360123E0,1.524929047E0,-1.531783819E0,-2.695448875E0
7.245009123E0,9.143755436E-1,-1.512898684E0,-2.689726830E0
7.254752123E0,4.014199972E-1,-1.568324804E0,-2.592674732E0
7.264826123E0,-7.916164398E-2,-1.594041348E0,-2.426415920E0
7.275050123E0,-4.810625911E-1,-1.542623758E0,-2.186139584E0
7.285207123E0,-7.670147419E-1,-1.469887018E0,-1.881545544E0
7.294466123E0,-8.758002520E-1,-1.367261171E0,-1.688002110E0
7.304621123E0,-8.258654475E-1,-1.260587215E0,-1.627074242E0
7.315685123E0,-6.656502485E-1,-1.148974895E0,-1.609348774E0
7.324836123E0,-4.764670730E-1,-1.013188362E0,-1.706990242E0
7.334307123E0,-2.650886178E-1,-8.980970383E-1,-1.863299847E0
7.344440123E0,-4.579353333E-2,-7.764573097E-1,-2.117996693E0
7.356980123E0,1.920623779E-1,-5.084853172E-1,-2.525615215E0
7.366425123E0,2.332584262E-1,-3.960738182E-1,-2.502657413E0
7.374742123E0,2.332894206E-1,-4.146065712E-1,-2.493792057E0
7.384534123E0,2.791055441E-1,-3.043527603E-1,-2.308631897E0
7.394341123E0,3.225674629E-1,-2.141466141E-1,-2.028274059E0
7.406395123E0,4.826959968E-1,1.735448837E-2,-1.255730629E0
7.419409123E0,6.305861473E-1,1.301083565E-1,-9.355683327E-1
7.436387123E0,8.758112788E-1,2.791404724E-1,-5.003166199E-1
7.444585123E0,8.845766783E-1,2.945070267E-1,-5.066337585E-1
7.454599123E0,9.040693045E-1,4.363546371E-1,-1.511096954E-2
7.464502123E0,6.686791182E-1,6.122894287E-1,3.599662781E-1
7.474551123E0,4.539114237E-1,7.070765495E-1,7.437133789E-1
7.484770123E0,2.509540915E-1,7.767271996E-1,1.082078934E0
7.494497123E0,8.757960796E-2,7.438721657E-1,1.343852997E0
7.504710123E0,-2.865707874E-2,6.608963013E-1,1.520105362E0
7.514466123E0,-1.746209860E-1,4.594817162E-1,1.563954353E0
7.525002123E0,-2.106434107E-1,2.952733040E-1,1.588383675E0
7.536990123E0,-2.400450706E-1,3.082265854E-1,1.744245529E0
7.554869123E0,-1.709454060E-1,5.955190659E-1,2.290320396E0
7.564897123E0,-3.423106670E-2,6.838841438E-1,2.705445290E0
7.574647123E0,1.253073215E-1,7.653388977E-1,3.034272194E0
7.584742123E0,2.396076918E-1,8.852314949E-1,3.260689735E0
7.594571123E0,3.033140898E-1,9.974107742E-1,3.360439301E0
7.604880123E0,4.310886860E-1,9.798641205E-1,3.439107895E0
7.614725123E0,6.978202462E-1,7.319993973E-1,3.502563477E0
7.624956123E0,1.063760638E0,2.284579277E-1,3.629642487E0
7.634407123E0,1.242803693E0,-3.588175774E-1,3.851683617E0
7.644871123E0,1.039688110E0,-8.553650379E-1,3.889204025E0
7.655921123E0,5.048563480E-1,-1.287397385E0,3.836855888E0
7.664471123E0,-6.537955999E-2,-1.633147717E0,3.476891518E0
7.674376123E0,-6.346463561E-1,-1.872910023E0,2.961416245E0
7.684629123E0,-1.160656929E0,-2.043995619E0,2.311158180E0
7.694661123E0,-1.561712861E0,-2.107767105E0,1.730214119E0
7.705075123E0,-1.799464703E0,-2.007462025E0,1.247613907E0
7.714456123E0,-1.754407406E0,-1.892914057E0,8.430585861E-1
7.724676123E0,-1.429902792E0,-1.863023996E0,5.302133560E-1
7.734460123E0,-9.316444993E-1,-1.874629498E0,2.549552917E-1
7.744436123E0,-3.796654940E-1,-1.886963606E0,1.787376404E-2
7.754615123E0,1.187208295E-1,-1.868692160E0,-2.599925995E-1
7.764678123E0,4.992659092E-1,-1.838747025E0,-5.244512558E-1
7.777588123E0,7.351602316E-1,-1.841740370E0,-7.822270393E-1
7.794719123E0,6.704250574E-1,-1.868304014E0,-1.171730518E0
7.804776123E0,4.751687646E-1,-1.864397764E0,-1.330601692E0
7.814798123E0,3.127552271E-1,-1.875280380E0,-1.380050182E0
7.824542123E0,1.851097345E-1,-1.863515139E0,-1.377831936E0
7.834827123E0,9.179243445E-2,-1.839256048E0,-1.386579037E0
7.844633123E0,-1.542633772E-2,-1.789647102E0,-1.324414730E0
7.854390123E0,-5.574268103E-2,-1.740095377E0,-1.300914764E0
7.864966123E0,-9.342390299E-2,-1.668292522E0,-1.320358276E0
7.874587123E0,-8.634984493E-2,-1.589885235E0,-1.370498180E0
7.884487123E0,-4.134243727E-2,-1.538586855E0,-1.434573650E0
7.894596123E0,-6.483262777E-2,-1.477973461E0,-1.589543819E0
7.905176123E0,-1.289691329E-1,-1.360889912E0,-1.689562321E0
7.914389123E0,-1.425743699E-1,-1.275549173E0,-1.769300461E0
7.924488123E0,-5.660486221E-2,-1.218901634E0,-1.863255978E0
7.934571123E0,7.529109716E-2,-1.151001453E0,-1.938426018E0
7.944602123E0,2.084625661E-1,-1.054106712E0,-1.974730015E0
7.955002123E0,3.204947114E-1,-9.270281792E-1,-1.929587841E0
7.964602123E0,4.102539718E-1,-7.985217571E-1,-1.851424217E0
7.974986123E0,4.670372009E-1,-7.089388371E-1,-1.692554951E0
7.984835123E0,3.239735961E-1,-5.696110725E-1,-1.329761028E0
7.994382123E0,3.108875155E-1,-5.612087250E-1,-1.334672451E0
8.004900123E0,4.609316587E-2,-3.739080429E-1,-7.293176651E-1
8.014506123E0,2.515614033E-3,-3.543686867E-1,-4.273719788E-1
8.024692123E0,4.643961787E-2,-3.727469444E-1,-1.718845367E-1
8.034340123E0,3.502523899E-2,-2.745151520E-1,-6.689643860E-2
8.044416123E0,-1.767447591E-2,-1.674213409E-1,-2.197837830E-2
8.054420123E0,-4.971864820E-2,-8.392620087E-2,2.952957153E-2
8.064414123E0,-1.870343089E-2,2.482891083E-3,1.821260452E-1
8.074640123E0,6.048151851E-2,9.294366837E-2,5.735130310E-1
8.084661123E0,1.309636980E-1,1.154375076E-1,9.733667374E-1
8.097014123E0,1.221352369E-1,1.278233528E-1,1.374833107E0
8.114380123E0,-2.183390558E-1,2.167005539E-1,2.048063278E0
8.124704123E0,-3.951191306E-1,2.535781860E-1,2.470530510E0
8.134763123E0,-4.326493740E-1,2.678055763E-1,2.890907288E0
8.145941123E0,-3.261351585E-1,2.474694252E-1,3.162425995E0
8.154380123E0,-2.017911673E-1,3.153691292E-1,3.387862206E0
8.164464123E0,-1.173779368E-2,4.692606926E-1,3.420933723E0
8.174863123E0,3.070686758E-1,5.863928795E-1,3.336410522E0
8.184775123E0,7.041801810E-1,6.890368462E-1,3.103040695E0
8.194386123E0,1.145025849E0,7.462449074E-1,2.792273521E0
8.204377123E0,1.584788203E0,7.260355949E-1,2.704470634E0
8.214515123E0,1.948953867E0,5.516085625E-1,2.687165260E0
8.224513123E0,2.201581240E0,2.302718163E-1,2.764311790E0
8.234861123E0,2.290961027E0,-2.404541969E-1,2.880879402E0
8.245189123E0,2.045163870E0,-6.311995983E-1,3.098144531E0
8.254559123E0,1.492897630E0,-9.600574970E-1,3.201895714E0
8.264375123E0,8.981653452E-1,-1.328013897E0,3.206712723E0
8.274392123E0,3.887817860E-1,-1.668168068E0,2.999659538E0
8.284401123E0,2.595629916E-2,-1.934674978E0,2.624465942E0
8.294745123E0,-9.519226104E-2,-2.100344181E0,2.127731323E0
8.304601123E0,-1.125417203E-1,-2.093805075E0,1.504860878E0
8.315702123E0,-3.872300684E-2,-1.961358547E0,8.713569641E-1
8.324350123E0,2.349054515E-1,-1.825446606E0,2.160568237E-1
8.334734123E0,7.235825062E-1,-1.818619728E0,-3.424320221E-1
8.344729123E0,1.297033191E0,-1.869713545E0,-8.186168671E-1
8.354680123E0,1.777630448E0,-1.899616718E0,-1.121493816E0
8.364594123E0,2.096951485E0,-1.827670097E0,-1.326705456E0
8.374447123E0,2.241239786E0,-1.682708025E0,-1.473235607E0
8.384852123E0,2.243797302E0,-1.638982058E0,-1.510383606E0
8.394381123E0,2.087817192E0,-1.657535553E0,-1.407042503E0
8.404632123E0,1.793268800E0,-1.696939707E0,-1.327060223E0
8.414288123E0,1.287968874E0,-1.718393803E0,-1.333973408E0
8.424578123E0,7.278942466E-1,-1.626593351E0,-1.318309307E0
8.434505123E0,2.876197696E-1,-1.515858173E0,-1.358378410E0
8.444438123E0,1.580644399E-2,-1.469923019E0,-1.504497528E0
8.454477123E0,-1.025591195E-1,-1.417394161E0,-1.705709934E0
8.464729123E0,-1.084598899E-1,-1.309979916E0,-1.910344601E0
8.474969123E0,-4.321134090E-2,-1.167398453E0,-2.130822659E0
8.484600123E0,8.386228979E-2,-1.050727606E0,-2.348080635E0
8.494403123E0,2.002958357E-1,-9.232552052E-1,-2.543406010E0
8.504459123E0,2.923739254E-1,-7.920682430E-1,-2.685662746E0
8.514344123E0,3.742411435E-1,-6.510906219E-1,-2.702432156E0
8.524414123E0,4.165297747E-1,-5.277884007E-1,-2.654729843E0
8.534396123E0,5.127608180E-1,-4.484231472E-1,-2.343138218E0
8.544459123E0,4.559129477E-1,-3.985683918E-1,-2.099102974E0
8.555561123E0,3.240363300E-1,-2.983322144E-1,-1.872015953E0
8.564794123E0,1.893074214E-1,-1.580138206E-1,-1.516898632E0
8.574497123E0,1.249792278E-1,4.028320312E-3,-1.126200676E0
8.584353123E0,2.016809881E-1,1.270933151E-1,-7.062873840E-1
8.594550123E0,4.383628368E-1,2.240586281E-1,-3.828792572E-1
8.605575123E0,7.301473618E-1,3.305716515E-1,-1.235542297E-1
8.614464123E0,8.952629566E-1,4.206004143E-1,5.288314819E-2
8.624633123E0,9.582171440E-1,5.460610390E-1,1.164178848E-1
8.634445123E0,9.231479168E-1,6.547436714E-1,1.033802032E-1
8.644391123E0,7.979759574E-1,7.046132088E-1,7.087612152E-2
8.654446123E0,6.001031399E-1,7.727022171E-1,6.722164154E-2
8.664368123E0,3.474949896E-1,8.361268044E-1,1.401929855E-1
8.674587123E0,6.241071224E-2,8.751678467E-1,3.712959290E-1
8.684484123E0,-1.865763068E-1,8.707838058E-1,7.184543610E-1
8.694480123E0,-3.420553803E-1,7.892255783E-1,1.101300240E0
8.704790123E0,-4.497538209E-1,5.672941208E-1,1.519165993E0
8.714843123E0,-3.867934346E-1,4.541501999E-1,1.911946297E0
8.725239123E0,-2.756620646E-1,3.772711754E-1,2.349281311E0
8.735571123E0,-7.098948956E-2,3.228082657E-1,2.708670616E0
8.744704123E0,1.255286336E-1,2.983427048E-1,2.852634430E0
8.754434123E0,1.790602207E-1,3.459420204E-1,2.814173698E0
8.764464123E0,7.382774353E-2,4.808769226E-1,2.828881264E0
8.774480123E0,-8.457303047E-2,6.167912483E-1,2.558974266E0
8.785006123E0,-1.286966801E-1,6.652770042E-1,2.428244591E0
8.794683123E0,-6.005543470E-2,6.893687248E-1,2.304474831E0
8.804555123E0,1.534171104E-1,6.145129204E-1,2.291100502E0
8.814978123E0,5.867603421E-1,3.174672127E-1,2.583682060E0
8.825453123E0,1.073953390E0,-2.327170372E-1,2.985733032E0
8.841647123E0,9.967902899E-1,-1.245285034E0,3.699805260E0
8.855626123E0,6.505438685E-1,-1.788419008E0,3.556133270E0
8.864533123E0,9.580737352E-2,-2.110527277E0,2.854504585E0
8.874414123E0,-5.998132825E-1,-2.068993330E0,2.229969025E0
8.884677123E0,-1.149914980E0,-1.899581194E0,1.783220291E0
8.894362123E0,-1.370524168E0,-1.726103544E0,1.399821281E0
8.905216123E0,-1.293704748E0,-1.505651236E0,1.023326874E0
8.914351123E0,-8.593863249E-1,-1.396652699E0,6.731529236E-1
8.924402123E0,-1.021295190E-1,-1.501446009E0,4.130945206E-1
8.934384123E0,6.702123284E-1,-1.624253988E0,2.475538254E-1
8.944302123E0,1.234709859E0,-1.653867722E0,8.510398865E-2
8.954793123E0,1.654865980E0,-1.732906103E0,3.029727936E-2
8.964926123E0,1.907096744E0,-1.864301205E0,2.610015869E-2
8.976746123E0,1.687402487E0,-2.042001486E0,5.235862732E-2
8.994490123E0,1.261334658E0,-2.043572664E0,4.635429382E-2
9.004401123E0,7.332431674E-1,-1.981090307E0,1.049041748E-3
9.014444123E0,1.811676323E-1,-1.860903025E0,5.055046082E-2
9.024800123E0,-2.716469169E-1,-1.725088120E0,1.770992279E-1
9.034585123E0,-5.044783354E-1,-1.648279190E0,2.313079834E-1
9.044597123E0,-5.489467382E-1,-1.650511026E0,9.720134735E-2
9.054525123E0,-4.972415566E-1,-1.621486187E0,-1.891574860E-1
9.064737123E0,-3.772341013E-1,-1.537410498E0,-6.290340424E-1
9.077052123E0,-9.164988995E-3,-1.230878592E0,-1.591382504E0
9.094712123E0,2.097433209E-1,-9.898092747E-1,-2.288883686E0
9.104541123E0,2.852724791E-1,-9.134247303E-1,-2.457368374E0
9.114379123E0,3.557691276E-1,-8.489403725E-1,-2.511894703E0
9.124692123E0,3.783185780E-1,-8.082118034E-1,-2.445333958E0
9.135069123E0,3.248142004E-1,-7.660760880E-1,-2.208110332E0
9.144345123E0,2.803128660E-1,-7.170183659E-1,-1.887191296E0
9.157275123E0,2.526417375E-1,-6.393961906E-1,-1.517707348E0
9.174395123E0,2.687874436E-1,-4.771955013E-1,-1.107059956E0
9.185113123E0,1.985954046E-1,-3.790268898E-1,-1.022415161E0
9.195503123E0,1.745708585E-1,-2.718043327E-1,-9.398922920E-1
9.204715123E0,2.125337422E-1,-1.993360519E-1,-9.825034142E-1
9.214491123E0,2.868046165E-1,-1.708230972E-1,-1.013476849E0
9.225537123E0,3.726315498E-1,-1.210041046E-1,-9.736967087E-1
9.234660123E0,4.422770143E-1,-1.114544868E-1,-8.401727676E-1
9.245016123E0,5.362277031E-1,-1.186575890E-1,-6.167573929E-1
9.254465123E0,6.083585620E-1,-1.341986656E-1,-2.997732162E-1
9.265308123E0,6.224044561E-1,-1.500201225E-1,1.050119400E-1
9.274657123E0,6.130431294E-1,-1.444559097E-1,4.312572479E-1
9.284507123E0,5.106178522E-1,-1.429090500E-1,7.538986206E-1
9.294351123E0,3.449178338E-1,-1.184816360E-1,1.070735931E0
9.304492123E0,1.718355417E-1,-7.709026337E-2,1.324079514E0
9.314369123E0,-2.971586585E-2,-4.282999039E-2,1.677354813E0
9.324689123E0,-2.697054446E-1,1.296854019E-1,2.015129089E0
9.334492123E0,-4.099950194E-1,2.461862564E-1,2.397880554E0
9.344411123E0,-3.880338967E-1,3.410940170E-1,2.699676514E0
9.354373123E0,-3.280522823E-1,3.972229958E-1,2.824145317E0
9.366214123E0,-2.387806177E-1,5.346632004E-1,2.791477203E0
9.374546123E0,-9.384581447E-2,6.499233246E-1,2.737523079E0
9.384320123E0,2.934451997E-1,6.866879463E-1,2.746595383E0
9.394512123E0,9.740738869E-1,6.611051559E-1,2.680247307E0
9.410975123E0,2.424714088E0,4.616999626E-1,2.665595055E0
9.424458123E0,2.713436604E0,3.485960960E-1,2.707373619E0
9.434450123E0,2.781684160E0,3.062582016E-2,2.782644272E0
9.444414123E0,2.504991531E0,-4.596016407E-1,2.839640617E0
9.454416123E0,1.918902636E0,-9.738149643E-1,2.659209251E0
9.464321123E0,1.044619799E0,-1.300937414E0,2.377933502E0
9.474581123E0,2.226296365E-1,-1.436514616E0,2.082483292E0
9.484487123E0,-3.451402187E-1,-1.517746687E0,1.831975937E0
9.494607123E0,-5.752202272E-1,-1.652199745E0,1.514390945E0
9.504697123E0,-5.417909622E-1,-1.763283730E0,1.114788055E0
9.514699123E0,-3.903773129E-1,-1.751923561E0,5.851421356E-1
9.524569123E0,-1.273198128E-1,-1.567027569E0,-9.920883179E-2
9.534399123E0,2.643644214E-1,-1.378569841E0,-6.772260666E-1
9.544388123E0,9.128867984E-1,-1.256181955E0,-9.834308624E-1
9.556178123E0,2.447924852E0,-1.164088249E0,-1.333971500E0
9.564406123E0,2.383368492E0,-1.199268341E0,-1.318254948E0
9.574539123E0,2.921757221E0,-1.195981979E0,-1.370665550E0
9.584529123E0,3.175989389E0,-1.223826408E0,-1.497753143E0
9.594502123E0,3.125685930E0,-1.267614365E0,-1.596667290E0
9.605659123E0,2.121237040E0,-1.419254541E0,-1.391752720E0
9.614498123E0,1.361458898E0,-1.398426533E0,-9.702720642E-1
9.624522123E0,6.757631302E-1,-1.359145641E0,-4.943437576E-1
9.634348123E0,1.552502513E-1,-1.328533173E0,-9.440517426E-2
9.644433123E0,-1.960017532E-1,-1.316080809E0,1.148090363E-1
9.654397123E0,-3.448275924E-1,-1.281218529E0,7.917785645E-2
9.664414123E0,-3.106418252E-1,-1.189494848E0,-1.545391083E-1
9.676399123E0,-1.002180874E-1,-1.002387285E0,-5.423927307E-1
9.684553123E0,2.080312818E-1,-8.289513588E-1,-9.871816635E-1
9.694597123E0,4.813030064E-1,-6.691858768E-1,-1.463098526E0
9.704721123E0,7.490679026E-1,-5.274686813E-1,-1.844212055E0
9.714397123E0,9.567880630E-1,-4.190411568E-1,-2.215768337E0
9.726506123E0,1.073830843E0,-3.488593102E-1,-2.466603279E0
9.734582123E0,1.081130624E0,-2.526159286E-1,-2.526828289E0
9.744405123E0,9.619544148E-1,-1.785869598E-1,-2.429679871E0
9.754397123E0,7.961692810E-1,-1.107401848E-1,-2.176654816E0
9.764720123E0,6.576251984E-1,-6.245899200E-2,-1.830670357E0
9.774419123E0,5.864903331E-1,9.479999542E-3,-1.475734711E0
9.784534123E0,5.840582848E-1,5.212211609E-2,-1.174004555E0
9.794344123E0,6.456224322E-1,5.482769012E-2,-9.035086632E-1
9.804616123E0,7.175816298E-1,1.010460854E-1,-6.371765137E-1
9.814524123E0,7.856470942E-1,2.318873405E-1,-4.429845810E-1
9.824627123E0,8.525010943E-1,3.425858021E-1,-3.456773758E-1
9.836618123E0,8.767455220E-1,3.762531281E-1,-2.558012009E-1
9.844775123E0,9.098680019E-1,4.626903534E-1,-1.806535721E-1
9.854678123E0,7.052217722E-1,4.627776146E-1,-1.050157547E-1
9.864494123E0,3.903239369E-1,4.412078857E-1,4.935264587E-3
9.874438123E0,6.213459373E-2,4.317479134E-1,1.867656708E-1
9.884472123E0,-2.106162906E-1,3.977684975E-1,3.999443054E-1
9.894817123E0,-3.766787648E-1,3.550481796E-1,6.761398315E-1
9.904446123E0,-5.142731667E-1,3.662843704E-1,1.012191772E0
9.914439123E0,-5.507543683E-1,3.465733528E-1,1.311722755E0
9.928289123E0,-5.254269838E-1,2.794404030E-1,1.544063568E0
9.944474123E0,-3.886720240E-1,2.296752930E-1,1.953755379E0
9.954391123E0,-2.202850282E-1,1.943926811E-1,2.078949928E0
9.964527123E0,-1.279749870E-1,1.900048256E-1,2.109498024E0
9.978543123E0,-3.515654802E-1,4.052739143E-1,2.122262955E0
9.994343123E0,-4.842954874E-1,4.853844643E-1,1.981068611E0
1.000440812E1,-6.408854723E-1,5.486230850E-1,1.837922096E0
1.001447412E1,-7.688528895E-1,6.563072205E-1,1.690324783E0
1.002552712E1,-6.671034098E-1,6.833624840E-1,1.524435043E0
1.003474412E1,-2.846226096E-1,5.382218361E-1,1.495390892E0
1.004442812E1,3.369015157E-1,2.413759232E-1,1.597984314E0
1.005475512E1,9.931837320E-1,-2.101292610E-1,1.875710487E0
1.006499112E1,1.499989033E0,-6.742801666E-1,2.265920639E0
1.007454912E1,1.672784805E0,-1.150739193E0,2.546437263E0
1.008437712E1,1.440705538E0,-1.657746553E0,2.809117317E0
1.009689912E1,1.612848639E-1,-2.572483778E0,2.213716507E0
1.011465612E1,-6.476373672E-1,-2.438099861E0,1.678431511E0
1.012468812E1,-1.166681528E0,-2.339893818E0,1.309145927E0
1.013499612E1,-1.558327436E0,-1.810470819E0,6.320276260E-1
1.014512112E1,-1.429868698E0,-1.588089705E0,2.152652740E-1
1.015464712E1,-1.074021935E0,-1.545560360E0,-2.557935715E-1
1.016437912E1,-6.479923725E-1,-1.591145277E0,-6.976127625E-1
1.017457012E1,-2.338544726E-1,-1.537730455E0,-1.042761803E0
1.018460412E1,1.654344201E-1,-1.489169836E0,-1.219658375E0
1.019436912E1,5.799379945E-1,-1.540820122E0,-1.190154552E0
1.021068512E1,9.089778066E-1,-1.663917303E0,-1.009902000E0
1.022481112E1,1.071916342E0,-1.770095110E0,-2.526702881E-1
1.023580512E1,1.020704865E0,-1.820505142E0,2.324743271E-1
1.024436112E1,8.406367302E-1,-1.936347008E0,6.560850143E-1
1.025475512E1,4.724448919E-1,-1.967666864E0,9.874353409E-1
1.026473812E1,-1.488089561E-3,-1.919028044E0,1.109592438E0
1.027435212E1,-4.371539950E-1,-1.902392387E0,1.050801277E0
1.028538512E1,-7.588849664E-1,-1.843535662E0,8.027105331E-1
1.029440412E1,-9.142557383E-1,-1.701815605E0,4.646463394E-1
1.030444412E1,-8.820323944E-1,-1.554398537E0,6.899929047E-2
1.031435412E1,-6.480743289E-1,-1.398707151E0,-3.530759811E-1
1.032435712E1,-3.156049848E-1,-1.249012232E0,-7.626094818E-1
1.033440112E1,4.429256916E-2,-1.159456253E0,-1.123706818E0
1.034450212E1,2.860565484E-1,-1.033911943E0,-1.337175846E0
1.035490812E1,4.238321185E-1,-9.206924438E-1,-1.440732956E0
1.036436312E1,4.703640342E-1,-8.144984245E-1,-1.448171616E0
1.037479312E1,4.442809820E-1,-6.927325726E-1,-1.462961197E0
1.038442512E1,3.615052998E-1,-5.689480305E-1,-1.436518669E0
1.039433112E1,2.520285249E-1,-4.465155602E-1,-1.368625164E0
1.040433912E1,1.404043436E-1,-3.389756680E-1,-1.307278633E0
1.041553212E1,6.540971994E-2,-2.209515572E-1,-1.239633083E0
1.042441712E1,7.829964161E-3,-1.499400139E-1,-1.189587593E0
1.043445512E1,-3.558880091E-2,-7.757472992E-2,-1.133367538E0
1.044443612E1,-3.132486343E-2,-1.255702972E-2,-1.035826206E0
1.045459212E1,2.429050207E-2,-1.778602600E-3,-9.517588615E-1
1.046459712E1,6.960269809E-2,5.547761917E-2,-7.949523926E-1
1.047449512E1,8.221945167E-2,1.412858963E-1,-5.940818787E-1
1.048446512E1,8.291938901E-2,1.571493149E-1,-3.657474518E-1
1.049434112E1,4.985052347E-2,1.125302315E-1,-1.412458420E-1
1.050436712E1,1.092356443E-2,8.959817886E-2,6.419277191E-2
1.051476612E1,-4.711598158E-2,3.069686890E-2,2.489538193E-1
1.052437012E1,-1.534371376E-1,8.183956146E-3,4.245519638E-1
1.053471812E1,-3.069187403E-1,1.383686066E-2,6.197938919E-1
1.054443212E1,-4.175224006E-1,1.579046249E-2,8.405752182E-1
1.055471112E1,-4.546805918E-1,7.895946503E-3,1.127810478E0
1.056448712E1,-4.134304523E-1,1.997470856E-2,1.437866211E0
1.057448612E1,-3.769170046E-1,3.409004211E-2,1.776521683E0
1.058442012E1,-3.504426479E-1,4.784774780E-2,2.057317734E0
1.059452212E1,-3.171693087E-1,4.605340958E-2,2.334569931E0
1.060585412E1,-2.917528450E-1,3.618144989E-2,2.556939125E0
1.061460212E1,-3.240856528E-1,7.991361618E-2,2.682200432E0
1.062454412E1,-3.868497312E-1,1.959595680E-1,2.708321571E0
1.063448012E1,-3.782064617E-1,3.118376732E-1,2.577610016E0
1.064444612E1,-1.944318414E-1,3.896141052E-1,2.461738586E0
1.065435512E1,1.733263731E-1,4.741907120E-1,2.293352127E0
1.066439012E1,6.750438809E-1,5.629453659E-1,2.186397552E0
1.067584712E1,1.856363654E0,4.398694038E-1,2.377223969E0
1.068433012E1,2.392287493E0,2.283287048E-2,2.619336128E0
1.069429512E1,2.716608524E0,-6.067628860E-1,2.775964737E0
1.070441712E1,2.645757198E0,-1.131121635E0,2.814687729E0
1.071451012E1,2.324745178E0,-1.594557047E0,2.738616943E0
1.072478912E1,1.803757071E0,-1.973755598E0,2.580001831E0
1.073447612E1,1.199349642E0,-2.194249630E0,2.464758873E0
1.074476212E1,6.868579388E-1,-2.321349621E0,2.328207016E0
1.075468112E1,4.028938413E-1,-2.496219873E0,2.063886642E0
1.076440912E1,2.338371128E-1,-2.687539577E0,1.603737831E0
1.077438612E1,8.699951321E-2,-2.676914215E0,9.762201309E-1
1.078438312E1,4.067600518E-2,-2.516800880E0,2.474470139E-1
1.079434612E1,2.088705599E-1,-2.376166821E0,-4.771480560E-1
1.080433212E1,5.944584608E-1,-2.280764580E0,-1.070443630E0
1.081590812E1,1.060523748E0,-2.231950045E0,-1.620087624E0
1.082451612E1,1.496665835E0,-2.159703255E0,-2.050760269E0
1.083498212E1,1.781972528E0,-2.052768230E0,-2.359477043E0
1.084458412E1,1.943732619E0,-1.886599302E0,-2.474923134E0
1.085495112E1,1.973520160E0,-1.792120218E0,-2.434142590E0
1.086544112E1,1.890835404E0,-1.764431953E0,-2.186219215E0
1.087472712E1,1.673260570E0,-1.757658005E0,-1.782650948E0
1.088526212E1,1.361665487E0,-1.750355482E0,-1.335559845E0
1.089440812E1,1.009091139E0,-1.719391346E0,-9.606256485E-1
1.090506212E1,6.531308889E-1,-1.641611814E0,-7.017030716E-1
1.091465812E1,3.732528985E-1,-1.561244011E0,-5.368976593E-1
1.092472212E1,1.707496494E-1,-1.459722757E0,-4.908161163E-1
1.093578512E1,1.156530678E-1,-1.329697847E0,-5.874061584E-1
1.094467612E1,1.982793361E-1,-1.167505980E0,-8.556661606E-1
1.095448012E1,4.150210917E-1,-1.003565788E0,-1.197188854E0
1.096487012E1,6.470832825E-1,-8.178014755E-1,-1.501035213E0
1.097491912E1,7.789827585E-1,-6.252040863E-1,-1.760644436E0
1.098514412E1,8.740357161E-1,-4.884428978E-1,-1.998880386E0
1.099467512E1,8.982944489E-1,-3.457872868E-1,-2.171674252E0
1.100447612E1,8.450242281E-1,-1.940379143E-1,-2.291061401E0
1.101441112E1,7.950850725E-1,-7.254958153E-2,-2.289949894E0
1.102454112E1,7.877935171E-1,1.645660400E-2,-2.065940857E0
1.103444612E1,7.497377396E-1,1.130416393E-1,-1.795830250E0
1.104447712E1,7.111151218E-1,2.074599266E-1,-1.384872913E0
1.105656712E1,6.715905070E-1,3.280766010E-1,-9.181060791E-1
1.107149412E1,9.014089108E-1,6.321222782E-1,1.139945984E-1
1.108442012E1,9.253481627E-1,6.710724831E-1,1.000442505E-1
1.109466312E1,9.899032116E-1,7.879726887E-1,1.938743591E-1
1.110582812E1,6.581766009E-1,6.372051239E-1,2.176303864E-1
1.111494512E1,5.385434031E-1,6.705653667E-1,6.461238861E-2
1.112451312E1,3.024645150E-1,7.164213657E-1,-1.454162598E-1
1.113441612E1,7.683098316E-3,7.658627033E-1,-2.660408020E-1
1.114434012E1,-2.786114812E-1,7.991197109E-1,-2.134914398E-1
1.115567012E1,-5.411646962E-1,7.512204647E-1,8.840942383E-2
1.116490712E1,-8.293364644E-1,4.321465492E-1,7.490606308E-1
1.117447912E1,-9.774672985E-1,2.713952065E-1,1.362618446E0
1.118438912E1,-1.050501823E0,1.127257347E-1,1.881133080E0
1.119448312E1,-1.107454538E0,-5.122756958E-2,2.293453217E0
1.120494312E1,-1.158984900E0,-7.861113548E-2,2.559638977E0
1.121438512E1,-1.059083223E0,-1.987457275E-3,2.640439034E0
1.122443012E1,-9.275106192E-1,1.163773537E-1,2.681542397E0
1.123452412E1,-8.251841664E-1,2.589244843E-1,2.750558853E0
1.124452112E1,-7.324832082E-1,4.454932213E-1,2.829749107E0
1.125452012E1,-5.786471367E-1,5.541348457E-1,2.866084099E0
1.126458212E1,-3.728646636E-1,5.300493240E-1,2.827380180E0
1.127448112E1,-1.687459350E-1,5.415086746E-1,2.841209412E0
1.128458012E1,3.419172764E-2,5.147347450E-1,2.924706459E0
1.129491712E1,3.789103031E-1,3.318233490E-1,2.996467590E0
1.130436712E1,7.042385340E-1,-5.760145187E-2,2.965617180E0
1.131447512E1,9.204112291E-1,-4.761762619E-1,2.970432281E0
1.132462312E1,9.581088424E-1,-9.330596924E-1,2.915477753E0
1.133697412E1,8.320431113E-1,-1.431751490E0,2.775900841E0
1.135437412E1,-5.461633205E-3,-2.179014683E0,2.424180984E0
1.136473212E1,-4.541504383E-1,-2.360920906E0,2.155404091E0
1.137434512E1,-8.191152215E-1,-2.493701458E0,1.868594170E0
1.138452412E1,-9.784708619E-1,-2.595227480E0,1.446852684E0
1.139457012E1,-9.537491798E-1,-2.680504084E0,8.713998795E-1
1.140492812E1,-8.036140203E-1,-2.646831036E0,2.139549255E-1
1.141441912E1,-6.257039905E-1,-2.558361769E0,-4.645137787E-1
1.142463012E1,-3.516324162E-1,-2.513180256E0,-1.068090916E0
1.143436912E1,1.962268353E-2,-2.484428883E0,-1.530132771E0
1.144501412E1,4.661202729E-1,-2.439323187E0,-1.859831333E0
1.145534212E1,9.192494154E-1,-2.406033516E0,-2.056430817E0
1.146436412E1,1.312582731E0,-2.376395226E0,-2.112357616E0
1.147439712E1,1.594667673E0,-2.387568235E0,-2.008327484E0
1.148471112E1,1.676494598E0,-2.432377815E0,-1.851320744E0
1.149436912E1,1.595696688E0,-2.465427876E0,-1.579387665E0
1.150434012E1,1.379320383E0,-2.461696863E0,-1.118475914E0
1.151438912E1,1.095043182E0,-2.442361116E0,-6.330394745E-1
1.152449612E1,7.405641079E-1,-2.367622614E0,-1.015043259E-1
1.153617912E1,3.497049809E-1,-2.216119528E0,3.097705841E-1
1.154434012E1,3.874737024E-2,-2.088452816E0,5.273561478E-1
1.155475512E1,-1.355406642E-1,-1.993816853E0,5.228052139E-1
1.156465612E1,-1.892789602E-1,-1.864449739E0,3.828191757E-1
1.157451312E1,-1.500647664E-1,-1.673791409E0,2.093391418E-1
1.158496212E1,3.456228971E-2,-1.537282705E0,-4.761123657E-2
1.159443712E1,3.135152161E-1,-1.485526562E0,-3.843183517E-1
1.160500312E1,5.332033634E-1,-1.400291204E0,-7.318773270E-1
1.161464312E1,6.446465254E-1,-1.260148764E0,-1.026421547E0
1.162448012E1,6.854794621E-1,-1.134367943E0,-1.202045918E0
1.163460312E1,6.870049238E-1,-9.970080853E-1,-1.296403885E0
1.164460712E1,6.439090371E-1,-8.190362453E-1,-1.363691330E0
1.165544612E1,6.059441566E-1,-6.608626842E-1,-1.369032383E0
1.166607312E1,5.639458299E-1,-5.312399864E-1,-1.380592823E0
1.167607512E1,4.783847034E-1,-3.882758617E-1,-1.364911079E0
1.168540712E1,4.160306752E-1,-2.101678848E-1,-1.241950512E0
1.169434612E1,3.698584437E-1,-3.428030014E-2,-1.137123108E0
1.170430212E1,3.734956086E-1,1.354260445E-1,-9.275951385E-1
1.171452512E1,3.847334683E-1,2.539820671E-1,-5.727682114E-1
1.172448712E1,4.054803550E-1,2.711486816E-1,-2.509136200E-1
1.173429312E1,3.887127638E-1,1.942143440E-1,9.726810455E-2
1.174458612E1,9.669029713E-2,1.370186806E-1,8.895072937E-1
1.176094412E1,-1.284342408E-1,1.629600525E-1,1.300541878E0
1.177456812E1,-2.191205919E-1,1.223516464E-2,1.948272705E0
1.178433412E1,-1.670011282E-1,-9.557342529E-2,2.019412994E0
1.179431412E1,-1.795626432E-1,-9.585881233E-2,2.102700233E0
1.180434012E1,-2.703555524E-1,-6.334924698E-2,2.212924957E0
1.181460312E1,-4.146943390E-1,4.695224762E-2,2.357512474E0
1.182543912E1,-5.504922271E-1,1.515765190E-1,2.439002991E0
1.183449012E1,-6.233575344E-1,2.484436035E-1,2.487222672E0
1.184504212E1,-5.158137083E-1,2.947740555E-1,2.532549858E0
1.185473112E1,-2.722675204E-1,3.497395515E-1,2.651575089E0
1.186450612E1,6.906740367E-2,5.398898125E-1,2.928157806E0
1.187574912E1,3.818240166E-1,6.311194897E-1,3.351412773E0
1.188486412E1,9.133208394E-1,4.546267986E-1,4.069067001E0
1.189599712E1,1.690494061E0,1.797633171E-1,4.192650795E0
1.190449012E1,1.618041396E0,-3.967404366E-1,5.028886795E0
1.191549912E1,1.805730343E0,-1.447452784E0,5.630949974E0
1.192460612E1,1.591481566E0,-2.170108795E0,5.011425972E0
1.193439812E1,9.963155985E-1,-2.315542698E0,4.010101318E0
1.194493712E1,3.524841070E-1,-2.506050587E0,3.491190910E0
1.195444612E1,-3.225596249E-2,-2.806027174E0,3.198578835E0
1.196461512E1,-2.477531135E-1,-2.940295696E0,2.560364723E0
1.197454112E1,-3.040248752E-1,-2.919926405E0,1.699142456E0
1.198480212E1,-9.595658630E-2,-2.912189960E0,7.734575272E-1
1.199453812E1,3.257045150E-1,-2.890871048E0,-1.320400238E-1
1.200438712E1,8.969388604E-1,-2.834240198E0,-1.052060127E0
1.201582812E1,1.400346160E0,-2.696803331E0,-1.838943005E0
1.202472312E1,1.787317038E0,-2.505553484E0,-2.444117069E0
1.203506312E1,2.011846542E0,-2.329008579E0,-2.806080341E0
1.204590012E1,2.098341227E0,-2.222299099E0,-2.915884018E0
1.205449112E1,2.028727531E0,-2.212141275E0,-2.771787643E0
1.206561712E1,1.802702665E0,-2.255588055E0,-2.378626823E0
1.207435212E1,1.500752211E0,-2.310441256E0,-1.902354717E0
1.208497012E1,1.212682843E0,-2.370011330E0,-1.388075829E0
1.209440112E1,8.887392282E-1,-2.358308315E0,-9.674215317E-1
1.210440912E1,5.417638421E-1,-2.320331573E0,-6.507730484E-1
1.211566712E1,2.325192988E-1,-2.345660210E0,-5.585336685E-1
1.212451612E1,-1.546441019E-2,-2.342617035E0,-6.313219070E-1
1.213443212E1,-1.985360831E-1,-2.223423719E0,-8.844385147E-1
1.214473912E1,-2.737444341E-1,-2.039093256E0,-1.166235924E0
1.215447312E1,-1.620997787E-1,-1.833528996E0,-1.422650814E0
1.216530312E1,1.151176393E-1,-1.603265047E0,-1.739879131E0
1.217471212E1,3.807385564E-1,-1.389812469E0,-2.094343662E0
1.218480912E1,5.926923752E-1,-1.196933270E0,-2.348027229E0
1.219473312E1,7.918601036E-1,-9.723868370E-1,-2.510842800E0
1.220492712E1,9.607523680E-1,-7.620468140E-1,-2.586157799E0
1.221502112E1,1.066471577E0,-6.006655693E-1,-2.554076672E0
1.222522612E1,1.101049304E0,-4.406580925E-1,-2.406420708E0
1.223617712E1,9.513298273E-1,-1.571936607E-1,-1.954890728E0
1.224457312E1,9.852126837E-1,-1.361856461E-1,-1.961737156E0
1.225460712E1,9.258884192E-1,-5.103969574E-2,-1.658691406E0
1.226529712E1,8.909857273E-1,4.351997375E-2,-1.035951138E0
1.227446212E1,9.106842875E-1,7.521104813E-2,-1.048476696E0
1.228488612E1,9.712914228E-1,2.108893394E-1,-2.185602188E-1
1.229863312E1,1.009094000E0,3.051373959E-1,2.164430618E-1
1.231440912E1,8.360609412E-1,3.758785725E-1,1.206363678E0
1.232473312E1,6.779046655E-1,3.432927132E-1,1.470978737E0
1.233465712E1,3.743183613E-1,3.422889709E-1,1.754189491E0
1.234487512E1,-1.973428130E-1,3.706233501E-1,2.086846352E0
1.235467612E1,-4.528173208E-1,3.765728474E-1,2.342576981E0
1.236505212E1,-5.976743698E-1,3.227376938E-1,2.678750992E0
1.237563112E1,-6.802015901E-1,2.821958065E-1,3.016370773E0
1.238463512E1,-6.823257208E-1,3.337013721E-1,3.373496056E0
1.239472112E1,-5.163552165E-1,3.619897366E-1,3.673587799E0
1.240472612E1,-2.500761151E-1,4.211118221E-1,3.832275391E0
1.241453012E1,3.830093145E-2,5.154876709E-1,3.917622566E0
1.242782712E1,3.315384686E-1,6.906239986E-1,3.913789749E0
1.244457312E1,8.201708794E-1,8.200669289E-1,3.797694206E0
1.245442312E1,1.222374558E0,6.928968430E-1,3.766825676E0
1.246578612E1,1.683618188E0,3.818235397E-1,3.737689972E0
1.247442412E1,1.961693525E0,-1.710932255E-1,3.784975052E0
1.248431712E1,1.817507625E0,-7.017722130E-1,3.969367027E0
1.249458312E1,1.345486403E0,-1.232916355E0,3.984800339E0
1.250432712E1,6.560081840E-1,-1.724045515E0,3.657807350E0
1.251638512E1,-9.193915129E-2,-2.157576561E0,3.231579781E0
1.252673612E1,-8.502598405E-1,-2.473479271E0,2.756874084E0
1.254006162E1,-1.942028522E0,-2.989998817E0,1.576789856E0
1.255431312E1,-2.158577919E0,-3.154046059E0,8.889818192E-1
1.256470812E1,-2.234415531E0,-3.235866547E0,1.600198746E-1
1.257440712E1,-2.219664574E0,-3.261108398E0,-5.431108475E-1
1.258451412E1,-2.181140184E0,-3.207418919E0,-1.140712738E0
1.259436212E1,-2.088510036E0,-3.154048443E0,-1.573491096E0
1.260443612E1,-1.936661720E0,-3.070631981E0,-1.878825188E0
1.261600212E1,-1.667588592E0,-3.008547783E0,-1.982706070E0
1.262459212E1,-1.232955337E0,-3.030810833E0,-1.808057308E0
1.263469712E1,-7.865889668E-1,-3.088507175E0,-1.568107605E0
1.264449612E1,-4.990994334E-1,-3.113004208E0,-1.247769833E0
1.265441212E1,-3.844786286E-1,-3.075164795E0,-9.350204468E-1
1.266534212E1,-3.854318261E-1,-3.021208763E0,-6.360654831E-1
1.267453612E1,-4.958549738E-1,-2.943264008E0,-4.516906738E-1
1.268442812E1,-5.959411263E-1,-2.843682289E0,-3.913011551E-1
1.269480512E1,-6.617019176E-1,-2.691482544E0,-4.377174377E-1
1.270435012E1,-7.330937386E-1,-2.510675907E0,-6.218109131E-1
1.271457412E1,-7.460166216E-1,-2.318192244E0,-7.952518463E-1
1.272466012E1,-6.719614267E-1,-2.156749487E0,-1.019443035E0
1.273566312E1,-5.651020408E-1,-2.005712032E0,-1.284343719E0
1.274486812E1,-3.937408030E-1,-1.846621990E0,-1.485239506E0
1.275431912E1,-2.592331171E-1,-1.690930605E0,-1.582226276E0
1.276438512E1,-1.656877100E-1,-1.516746759E0,-1.637048721E0
1.277464312E1,-9.704127908E-2,-1.350885153E0,-1.593751431E0
1.278564312E1,-7.189342380E-2,-1.071131229E0,-1.388893604E0
1.279455112E1,-9.714722633E-2,-1.065410614E0,-1.392781734E0
1.280437612E1,-1.290659308E-1,-9.146101475E-1,-1.278891563E0
1.281437612E1,-1.194321513E-1,-7.959222794E-1,-1.072883129E0
1.282447712E1,4.292157292E-2,-5.877659321E-1,-1.003097534E0
1.283469312E1,1.344547868E-1,-4.854214191E-1,-9.269599915E-1
1.284470612E1,2.418715060E-1,-4.100725651E-1,-8.269681931E-1
1.286153412E1,2.557233572E-1,-3.252787590E-1,-6.549282074E-1
1.287440112E1,2.305228710E-1,-1.899619102E-1,-4.178047180E-2
1.288467012E1,2.468158305E-1,-1.820683479E-1,4.576988220E-1
1.289432912E1,2.275843322E-1,-1.570358276E-1,8.876562119E-1
1.290463712E1,1.632063985E-1,-2.004458904E-1,1.240578651E0
1.291437212E1,7.050488144E-2,-1.914851665E-1,1.557134628E0
1.292465512E1,-7.391747087E-2,-1.595036983E-1,1.730390549E0
1.293433612E1,-1.533987224E-1,-1.546745300E-1,1.820680618E0
1.294461112E1,-1.318410933E-1,-1.831359863E-1,1.839465141E0
1.295718612E1,-7.588160783E-2,-1.589732170E-1,1.825806618E0
1.297458812E1,-1.159318835E-1,-7.928848267E-2,1.930070877E0
1.298473912E1,-1.638042331E-1,-8.767318726E-2,2.136860847E0
1.299464212E1,-2.238995135E-1,-7.047939301E-2,2.333318710E0
1.300432112E1,-2.675745487E-1,-6.832122803E-3,2.542537689E0
1.301468712E1,-2.340921015E-1,6.736755371E-2,2.772285461E0
1.302472312E1,-1.228634417E-1,1.080398560E-1,2.942269325E0
1.303441512E1,4.427023232E-2,1.678714752E-1,3.082458496E0
1.304451412E1,2.063610703E-1,2.803473473E-1,3.288771629E0
1.305448012E1,4.168007970E-1,4.318227768E-1,3.501200676E0
1.306503412E1,7.387627363E-1,5.043501854E-1,3.704713821E0
1.307445912E1,1.160528898E0,3.601584435E-1,3.901032448E0
1.308474212E1,1.657432437E0,8.668231964E-2,3.790115356E0
1.309448312E1,1.914859533E0,-4.026460648E-1,3.690157890E0
1.310446512E1,1.879474282E0,-1.279293776E0,4.064410210E0
1.311507212E1,1.262044787E0,-1.786737442E0,3.798878670E0
1.312497612E1,3.025560081E-1,-1.851070166E0,3.064809799E0
1.313642012E1,-3.964663148E-1,-2.063635826E0,2.486745834E0
1.314467712E1,-6.834088564E-1,-2.446495771E0,1.704498291E0
1.315433412E1,-7.726162672E-1,-2.815243721E0,8.073291779E-1
1.316669212E1,-8.055279255E-1,-2.994835854E0,1.313543320E-1
1.317476812E1,-8.192600608E-1,-2.951486111E0,-5.475835800E-1
1.318487512E1,-7.286493778E-1,-2.820737839E0,-1.265426636E0
1.319440212E1,-4.769279361E-1,-2.692739010E0,-1.956434250E0
1.320466112E1,-1.090601087E-2,-2.590636969E0,-2.423130512E0
1.321442112E1,5.702720881E-1,-2.541598082E0,-2.763959408E0
1.322565612E1,1.088744164E0,-2.498327971E0,-2.922875881E0
1.323600912E1,1.470424294E0,-2.454624414E0,-2.855314255E0
1.324446112E1,1.630782485E0,-2.457979441E0,-2.660332680E0
1.325467512E1,1.525437593E0,-2.515440226E0,-2.333524227E0
1.326449812E1,1.224591732E0,-2.580835819E0,-1.956125736E0
1.327442212E1,7.916758657E-1,-2.626011610E0,-1.556981087E0
1.328438512E1,2.632822394E-1,-2.551343679E0,-1.126665592E0
1.329529312E1,-2.254759520E-1,-2.374241352E0,-5.805521011E-1
1.330444112E1,-5.895118713E-1,-2.216181755E0,-7.396030426E-2
1.331476212E1,-7.794308662E-1,-2.121159792E0,2.831268311E-1
1.332570512E1,-8.285341859E-1,-1.834017992E0,3.707704544E-1
1.333467212E1,-7.805813551E-1,-1.809908628E0,1.407337189E-1
1.334477112E1,-6.155757904E-1,-1.581951141E0,1.373796463E-1
1.335452512E1,-1.402401030E-1,-1.124747038E0,-7.624664307E-1
1.336464512E1,4.319939017E-2,-9.350838661E-1,-1.221639156E0
1.337459212E1,1.961129457E-1,-8.041615486E-1,-1.577861309E0
1.338432012E1,2.617438138E-1,-6.973705292E-1,-1.848210335E0
1.339452912E1,2.549442053E-1,-5.757710934E-1,-1.980844498E0
1.340464312E1,1.497055590E-1,-4.454605579E-1,-1.939184666E0
1.341439812E1,3.206613660E-2,-3.366265297E-1,-1.794972897E0
1.342439712E1,-6.882700324E-2,-2.560462952E-1,-1.510795116E0
1.343472812E1,-1.545801759E-1,-1.349906921E-1,-1.197146416E0
1.344452412E1,-9.064137936E-2,-7.317972183E-2,-7.855787277E-1
1.345440512E1,5.473774672E-2,-1.030969620E-1,-4.257297516E-1
1.346437812E1,1.750169694E-1,-9.856557846E-2,-1.651678085E-1
1.347434912E1,2.392535806E-1,-5.653715134E-2,1.251220703E-2
1.348443312E1,1.982628107E-1,1.421689987E-2,8.946800232E-2
1.349438812E1,9.472674131E-2,1.003847122E-1,1.414604187E-1
1.350448912E1,1.697182655E-3,1.209445000E-1,1.791009903E-1
1.351439712E1,-1.145967841E-1,1.065607071E-1,1.790323257E-1
1.352484212E1,-2.551603317E-1,1.611361504E-1,2.282953262E-1
1.353446312E1,-3.520619869E-1,1.829295158E-1,3.776865005E-1
1.354460612E1,-3.904079199E-1,1.613569260E-1,6.120328903E-1
1.355635912E1,-4.152988195E-1,1.120996475E-1,9.818687439E-1
1.356478412E1,-4.605321288E-1,6.967878342E-2,1.608683586E0
1.357481012E1,-4.089416862E-1,1.655292511E-2,2.160305977E0
1.358480512E1,-2.955989838E-1,-1.362485886E-1,2.672656059E0
1.359487212E1,-1.506550908E-1,-2.609724998E-1,3.091526985E0
1.360511912E1,-2.105623484E-2,-2.511339188E-1,3.289710045E0
1.361438612E1,3.789496422E-2,-6.784677505E-2,3.351102829E0
1.362477712E1,6.818288565E-2,2.227859497E-1,3.434579849E0
1.363476712E1,1.473200917E-1,4.481205940E-1,3.593512535E0
1.364468212E1,1.846399307E-1,6.737389565E-1,3.792533875E0
1.365449312E1,2.374750376E-1,8.593797684E-1,4.101761818E0
1.366444612E1,3.443096876E-1,8.784861565E-1,4.306015968E0
1.368038812E1,7.831872702E-1,3.750009537E-1,4.662399292E0
1.369458912E1,8.615303040E-1,-9.869337082E-2,4.748620033E0
1.370478712E1,7.466655374E-1,-5.736823082E-1,4.716826439E0
1.371462612E1,4.476079941E-1,-1.007126093E0,4.366666794E0
1.372472012E1,1.179301739E-2,-1.425969839E0,3.837967873E0
1.373559912E1,-3.413191438E-1,-1.847596884E0,3.077290535E0
1.374497412E1,-6.321638823E-1,-2.159802914E0,2.217999458E0
1.375739912E1,-9.311416149E-1,-2.290831804E0,1.452263832E0
1.377487412E1,-1.142657518E0,-2.457898855E0,1.310548782E-1
1.378474712E1,-1.114521861E0,-2.539098978E0,-5.688133240E-1
1.379455412E1,-1.098214030E0,-2.584731340E0,-1.176305771E0
1.380661112E1,-9.641559720E-1,-2.562380075E0,-1.963344097E0
1.381479412E1,-9.903399348E-1,-2.646232843E0,-1.919111729E0
1.382451812E1,-8.560186028E-1,-2.686188459E0,-2.189876080E0
1.383438512E1,-6.363772750E-1,-2.742073536E0,-2.323466301E0
1.384450512E1,-3.437317610E-1,-2.827715158E0,-2.355744362E0
1.385555112E1,1.833063364E-1,-2.970566273E0,-1.934797287E0
1.386474012E1,1.348506510E-1,-2.979498863E0,-1.932453156E0
1.387445412E1,2.133841068E-1,-3.057148933E0,-1.584141254E0
1.388547112E1,1.195157468E-1,-3.144197941E0,-9.460644722E-1
1.389447112E1,-6.212928891E-2,-3.103457928E0,-6.137070656E-1
1.390437312E1,-2.394749820E-1,-3.016776085E0,-4.514160156E-1
1.391433912E1,-3.860313892E-1,-2.933531284E0,-3.688707352E-1
1.392505612E1,-4.821744561E-1,-2.833793402E0,-4.266672134E-1
1.393435712E1,-5.869209766E-1,-2.733904600E0,-6.197705269E-1
1.394441912E1,-6.569648981E-1,-2.624381304E0,-7.988605499E-1
1.395616312E1,-7.184361815E-1,-2.491701365E0,-9.626684189E-1
1.396446012E1,-7.339071035E-1,-2.363339663E0,-1.206492901E0
1.397445412E1,-6.554541588E-1,-2.258085489E0,-1.377384663E0
1.398460612E1,-5.302221775E-1,-2.114239216E0,-1.566559315E0
1.399471812E1,-3.859013319E-1,-1.921990156E0,-1.768681049E0
1.400446312E1,-2.232687771E-1,-1.718624115E0,-1.883535862E0
1.401457012E1,-7.865709066E-2,-1.497334003E0,-1.909920692E0
1.402509712E1,5.369943380E-2,-1.276419878E0,-1.898519993E0
1.403472912E1,1.539577991E-1,-1.070688486E0,-1.786756039E0
1.404701312E1,1.951385587E-1,-8.874797821E-1,-1.628176212E0
1.406441312E1,7.853373885E-2,-4.966497421E-1,-1.246119022E0
1.407435612E1,-3.969576955E-2,-3.410592079E-1,-9.672017097E-1
1.408441012E1,-1.616243869E-1,-2.025389671E-1,-6.049242020E-1
1.409772212E1,-2.204984576E-1,-1.475958824E-1,-1.823787689E-1
1.411452512E1,-1.434634328E-1,-1.088800430E-1,7.658119202E-1
1.412484912E1,-1.687799841E-1,-4.765176773E-2,1.242796898E0
1.413435412E1,-2.191574275E-1,-2.595901489E-3,1.677388191E0
1.414466312E1,-2.900291085E-1,1.709556580E-2,2.005264282E0
1.415438912E1,-4.653997123E-1,9.903907776E-3,2.243295670E0
1.416435112E1,-7.034414411E-1,-2.378797531E-2,2.449169159E0
1.417467612E1,-9.489237070E-1,-2.006340027E-2,2.541761398E0
1.418449812E1,-1.109032512E0,-3.455638885E-3,2.623558998E0
1.419458912E1,-1.137001395E0,5.495738983E-2,2.745943069E0
1.420481812E1,-1.001970649E0,1.054449081E-1,2.839186668E0
1.421474412E1,-7.571177483E-1,1.518387794E-1,2.943910599E0
1.422445312E1,-5.649600029E-1,2.369461060E-1,3.034564972E0
1.423435312E1,-4.269954264E-1,3.939785957E-1,3.068858147E0
1.424448312E1,-2.027108669E-1,4.729232788E-1,3.133815765E0
1.425453112E1,6.257204711E-2,4.744439125E-1,3.181878090E0
1.426483912E1,3.136852682E-1,4.904088974E-1,3.290513039E0
1.427471812E1,5.871803164E-1,4.471821785E-1,3.358993530E0
1.428466512E1,8.820156455E-1,2.826275826E-1,3.398736000E0
1.429584212E1,1.126248717E0,-4.212808609E-2,3.370515823E0
1.430454212E1,1.268471003E0,-5.585367680E-1,3.255172729E0
1.431440712E1,1.245727301E0,-1.174112082E0,3.018840790E0
1.432722312E1,5.267670155E-1,-2.022325754E0,2.537228584E0
1.434454312E1,1.165280938E-1,-2.254016399E0,2.335785866E0
1.435448412E1,-2.439443767E-1,-2.626490593E0,2.095692635E0
1.436446112E1,-4.783344269E-1,-2.959234715E0,1.789172173E0
1.437732112E1,-6.134166121E-1,-3.154130936E0,1.346168518E0
1.439444512E1,-4.839718342E-1,-3.164924145E0,2.896919250E-1
1.440459712E1,-9.512290359E-2,-2.969327211E0,-2.705974579E-1
1.441471812E1,5.668946505E-1,-2.841452122E0,-6.904602051E-1
1.442474912E1,2.069508076E0,-2.696230888E0,-1.396459103E0
1.443428912E1,2.444517374E0,-2.514161110E0,-1.650527954E0
1.444444512E1,2.607109785E0,-2.339960337E0,-1.824109554E0
1.445435312E1,2.572377205E0,-2.258836269E0,-1.941278458E0
1.446470612E1,2.310643435E0,-2.134320736E0,-2.021286488E0
1.447462012E1,1.862383842E0,-1.983006001E0,-2.007265568E0
1.448475112E1,1.300902128E0,-1.821288109E0,-1.854918480E0
1.449455012E1,8.017463088E-1,-1.628098965E0,-1.580611229E0
1.450435212E1,4.385334849E-1,-1.457200527E0,-1.277315140E0
1.451437012E1,2.286281288E-1,-1.308640242E0,-1.010426521E0
1.452432912E1,1.188784540E-1,-1.175601244E0,-8.376207352E-1
1.453446112E1,7.855039835E-2,-1.113039017E0,-8.131113052E-1
1.454506112E1,3.380057216E-2,-1.038141966E0,-9.479236603E-1
1.455554912E1,-2.103796601E-2,-9.385535717E-1,-1.146627426E0
1.456438712E1,-1.014199555E-1,-8.454968929E-1,-1.348987103E0
1.457831412E1,-1.803115308E-1,-7.554514408E-1,-1.544537544E0
1.459448512E1,-3.147068918E-1,-6.816115379E-1,-1.616613865E0
1.460466312E1,-4.217481911E-1,-6.253581047E-1,-1.545302868E0
1.461440212E1,-5.276925564E-1,-5.613868237E-1,-1.391919613E0
1.462439012E1,-6.306432486E-1,-5.170938969E-1,-1.123768806E0
1.463450012E1,-6.129280329E-1,-4.219574928E-1,-8.089904785E-1
1.464440712E1,-5.108439922E-1,-4.186239243E-1,-4.520578384E-1
1.465441012E1,-3.878331780E-1,-4.156811237E-1,-1.279354095E-1
1.466478812E1,-2.680019736E-1,-3.357260227E-1,6.813335419E-2
1.467666212E1,-1.320581436E-1,-2.211267948E-1,1.716842651E-1
1.469463312E1,1.270702481E-1,-8.868455887E-3,1.311788559E-1
1.470445712E1,2.651243806E-1,6.708264351E-2,2.698898315E-2
1.471479012E1,3.674068153E-1,1.475543976E-1,-5.498123169E-2
1.472451412E1,4.126135707E-1,2.120029926E-1,-6.660175323E-2
1.473482112E1,4.171573520E-1,2.193276882E-1,-9.727478027E-4
1.474466212E1,3.352984190E-1,2.140910625E-1,9.058761597E-2
1.475475512E1,1.840772331E-1,2.132310867E-1,2.684841156E-1
1.476437712E1,6.057381630E-2,1.816554070E-1,5.627403259E-1
1.477437712E1,-5.439281464E-2,1.283411980E-1,9.772634506E-1
1.478439812E1,-3.269082308E-2,3.921437263E-2,1.545494080E0
1.479480912E1,4.543429613E-2,-1.037175655E-1,1.998606682E0
1.480461312E1,6.906753778E-2,-1.794590950E-1,2.346488953E0
1.481441012E1,6.132340431E-2,-1.051445007E-1,2.631747246E0
1.482477312E1,1.320058107E-2,1.146888733E-1,2.827166557E0
1.483438812E1,4.851585627E-2,4.203915596E-1,3.002205849E0
1.484440312E1,1.909948885E-1,7.076053619E-1,3.122321129E0
1.485443212E1,3.817077279E-1,9.148666859E-1,3.233259201E0
1.486478312E1,4.592036009E-1,1.213398695E0,3.379861832E0
1.487441012E1,5.628278255E-1,1.627551317E0,3.356496811E0
1.488479712E1,6.099348664E-1,1.661167622E0,3.414119720E0
1.489451712E1,8.415658474E-1,1.531498432E0,3.261840820E0
1.490522812E1,1.226399660E0,1.198944092E0,3.331565857E0
1.491444012E1,1.490190268E0,5.938529968E-1,3.352911949E0
1.492447512E1,1.592192054E0,-1.201813221E-1,3.670219421E0
1.493433812E1,1.232349038E0,-9.849493504E-1,3.982707977E0
1.494484412E1,-2.120062709E-1,-2.126636982E0,3.838567734E0
1.495458312E1,-2.075362802E-1,-2.101037025E0,3.341380119E0
1.496453712E1,-1.551810741E0,-2.915013313E0,2.599434853E0
1.497465512E1,-2.096951962E0,-3.039834738E0,1.837480545E0
1.498447012E1,-2.379125118E0,-3.035319090E0,1.229246140E0
1.499444412E1,-2.401612282E0,-2.890435457E0,5.719718933E-1
1.500440312E1,-2.170960188E0,-2.700167418E0,-1.238441467E-2
1.501438812E1,-1.705821991E0,-2.661052227E0,-5.955553055E-1
1.502454712E1,-1.041339636E0,-2.707720757E0,-1.137268543E0
1.503439812E1,-3.829962611E-1,-2.717723608E0,-1.465109825E0
1.504524012E1,1.695344448E-1,-2.688306808E0,-1.704938412E0
1.505430612E1,6.126929522E-1,-2.677490234E0,-1.669466019E0
1.506476012E1,8.204407692E-1,-2.712749481E0,-1.612121105E0
1.507451312E1,8.479413986E-1,-2.740349770E0,-1.474365711E0
1.508441412E1,7.669686079E-1,-2.780565262E0,-1.233143330E0
1.509433312E1,5.686971545E-1,-2.819067001E0,-9.339928627E-1
1.510425612E1,2.718161345E-1,-2.781956673E0,-5.676794052E-1
1.511487312E1,-7.298794389E-2,-2.608346939E0,-7.343196869E-2
1.512489212E1,-3.379167914E-1,-2.510253191E0,3.871774673E-1
1.513596712E1,-4.760353565E-1,-2.517171860E0,5.785923004E-1
1.514503612E1,-5.735501051E-1,-2.537961006E0,4.921035767E-1
1.515487612E1,-6.087722778E-1,-2.451072216E0,2.079687119E-1
1.516483612E1,-5.413557291E-1,-2.284017324E0,-1.818056107E-1
1.517448112E1,-3.097448647E-1,-2.091635466E0,-5.744285583E-1
1.518478612E1,-1.166731119E-3,-1.916468859E0,-1.023339272E0
1.519451012E1,2.870188355E-1,-1.767637730E0,-1.350162983E0
1.520448312E1,4.417570829E-1,-1.625429630E0,-1.574172497E0
1.521440712E1,3.649390936E-1,-1.510235310E0,-1.641421795E0
1.522484712E1,1.526506543E-1,-1.390718460E0,-1.573645592E0
1.523457512E1,-1.277677119E-1,-1.267932177E0,-1.431460857E0
1.524458412E1,-3.307856321E-1,-1.177509308E0,-1.278507233E0
1.525660412E1,-4.446576238E-1,-1.058432341E0,-1.152509689E0
1.526475112E1,-4.842444062E-1,-8.862707615E-1,-1.057920456E0
1.527481112E1,-4.412826300E-1,-7.413163185E-1,-9.952859879E-1
1.528487812E1,-3.024207950E-1,-6.433792114E-1,-9.031434059E-1
1.529444412E1,-1.852485687E-1,-5.557436943E-1,-8.267269135E-1
1.530456812E1,-1.139008179E-1,-4.412846565E-1,-7.558364868E-1
1.531454712E1,-7.456775010E-2,-4.350771904E-1,-6.714015007E-1
1.532468312E1,-8.583747596E-2,-4.170942307E-1,-4.809122086E-1
1.533433212E1,-1.415494382E-1,-3.460197449E-1,-3.272352219E-1
1.534446012E1,-2.655732632E-1,-2.914967537E-1,-6.552982330E-2
1.535428912E1,-3.829594553E-1,-1.890368462E-1,2.785234451E-1
1.536437112E1,-4.898800552E-1,-1.150979996E-1,7.228450775E-1
1.537449612E1,-6.152278781E-1,-6.738281250E-2,1.195774078E0
1.538475212E1,-6.559379101E-1,-4.307603836E-2,1.563750267E0
1.539461012E1,-5.033513904E-1,9.936761856E-2,1.706882477E0
1.540488312E1,-3.533392549E-1,1.982407570E-1,1.667118073E0
1.541456612E1,-2.643520832E-1,3.202595711E-1,1.669972420E0
1.542521212E1,-1.735986173E-1,4.572710991E-1,1.657929420E0
1.543469812E1,-1.107366383E-1,5.253477097E-1,1.752663612E0
1.544439712E1,-6.127469242E-2,6.201677322E-1,1.996762276E0
1.545437512E1,-3.436376154E-2,7.405214310E-1,2.170654297E0
1.546441512E1,-4.886484146E-2,7.874970436E-1,2.287382126E0
1.547453312E1,-7.464329898E-2,8.529143333E-1,2.277670860E0
1.548491212E1,4.863679409E-1,7.328257561E-1,2.104547501E0
1.549611612E1,1.131781936E0,4.659957886E-1,2.170894623E0
1.550452212E1,1.720733404E0,2.354702950E-1,2.336582184E0
1.551437212E1,2.088904619E0,2.242469788E-2,2.627567291E0
1.552476012E1,2.211226702E0,-2.751975060E-1,3.085563660E0
1.553472112E1,2.130118847E0,-7.173399925E-1,3.375072479E0
1.554456112E1,1.842340231E0,-1.220086336E0,3.319840431E0
1.555456812E1,1.246629477E0,-1.618841171E0,3.164613724E0
1.556486012E1,5.227705240E-1,-1.768834829E0,2.723719597E0
1.557456312E1,5.463584885E-2,-1.846770525E0,2.156844139E0
1.558436012E1,-1.155596972E-1,-2.013930559E0,1.560986519E0
1.559459512E1,-1.161238998E-1,-2.143537045E0,1.017138481E0
1.560502112E1,2.157952636E-2,-2.117578506E0,4.656972885E-1
1.561466912E1,3.191371262E-1,-2.000953436E0,-2.506027222E-1
1.562444612E1,8.174988627E-1,-1.997900486E0,-7.762246132E-1
1.563454012E1,1.407641411E0,-2.033906460E0,-1.085458755E0
1.564475312E1,1.889727473E0,-2.028966427E0,-1.314753056E0
1.565479312E1,2.228031874E0,-2.004040480E0,-1.537923336E0
1.566516912E1,2.347358227E0,-1.939265251E0,-1.756414413E0
1.567442712E1,2.268900394E0,-1.878054380E0,-1.875161648E0
1.568450612E1,1.960409045E0,-1.819143534E0,-1.917110920E0
1.569446812E1,1.489126444E0,-1.737397671E0,-1.729998589E0
1.570433912E1,9.712644219E-1,-1.675137520E0,-1.416592121E0
1.571456312E1,5.666394830E-1,-1.645353794E0,-1.114175797E0
1.572478312E1,2.289437801E-1,-1.598869324E0,-7.955865860E-1
1.573547412E1,-8.652225137E-2,-1.510039806E0,-6.556072235E-1
1.574494812E1,-3.173629642E-1,-1.407812119E0,-6.529951096E-1
1.575454312E1,-3.643523753E-1,-1.316106796E0,-7.604699135E-1
1.576480112E1,-2.665532529E-1,-1.224414587E0,-1.088728428E0
1.577436512E1,-5.837169290E-2,-1.135586739E0,-1.474754810E0
1.578521212E1,1.608306170E-1,-9.889938831E-1,-1.881204128E0
1.579469312E1,3.127835393E-1,-8.045296669E-1,-2.156284332E0
1.580483212E1,4.512326121E-1,-6.666738987E-1,-2.349956036E0
1.581437512E1,4.984552860E-1,-5.625762939E-1,-2.473984718E0
1.582438612E1,4.831427336E-1,-4.516487122E-1,-2.441455364E0
1.583465612E1,3.660976291E-1,-3.500685692E-1,-2.324508667E0
1.584491012E1,2.484928221E-1,-2.235417366E-1,-2.081074238E0
1.585459112E1,1.973853111E-1,-1.236958504E-1,-1.735627174E0
1.586467712E1,2.392214537E-1,-7.592487335E-2,-1.391485691E0
1.587446712E1,2.768155336E-1,-4.451274872E-2,-1.038350105E0
1.588442912E1,3.021695018E-1,4.283046722E-2,-6.888570786E-1
1.589584812E1,2.987625599E-1,1.530332565E-1,-5.192928314E-1
1.590445912E1,3.379663527E-1,2.773714066E-1,-4.292068481E-1
1.591433212E1,4.397438467E-1,3.595986366E-1,-3.833131790E-1
1.592452712E1,5.147999525E-1,4.260311127E-1,-4.184093475E-1
1.593468512E1,6.181925535E-1,5.179553032E-1,-4.955596924E-1
1.594446412E1,7.195651531E-1,5.728693008E-1,-4.937477112E-1
1.595442512E1,7.166433334E-1,6.130352020E-1,-4.521722794E-1
1.596461612E1,5.105910897E-1,5.151748657E-1,-2.366495132E-1
1.597846512E1,1.932334602E-1,3.174486160E-1,9.803867340E-2
1.599446412E1,-2.996509075E-1,1.454362869E-1,8.780469894E-1
1.600505412E1,-5.303308368E-1,-1.381421089E-1,1.706382751E0
1.601448412E1,-5.074509382E-1,-1.273684502E-1,1.701629639E0
1.602505412E1,-6.567659974E-1,-2.749576569E-1,2.025471687E0
1.603515012E1,-7.983160615E-1,-6.994533539E-2,2.234137535E0
1.604461212E1,-7.707861662E-1,1.014423370E-1,2.497333527E0
1.605468212E1,-5.881783366E-1,1.782341003E-1,2.817589760E0
1.606447812E1,-4.472149014E-1,2.396030426E-1,3.039410591E0
1.607562712E1,-4.406297803E-1,4.519681931E-1,3.120619774E0
1.608479212E1,-5.311087966E-1,7.031359673E-1,3.078497887E0
1.609557212E1,-6.179680228E-1,9.198379517E-1,2.941744804E0
1.610487912E1,-6.150665879E-1,9.903049469E-1,2.708827972E0
1.611436912E1,-4.612386823E-1,9.083318710E-1,2.358299255E0
1.612480712E1,-1.006736755E-1,5.198116302E-1,2.143623352E0
1.613456312E1,2.310343385E-1,2.101612091E-1,1.937635422E0
1.614449212E1,3.669334948E-1,-1.541466713E-1,2.016135216E0
1.615450412E1,4.755614698E-1,-7.611200809E-1,2.489212990E0
1.616497212E1,3.870913088E-1,-1.464889288E0,2.914793968E0
1.617437512E1,-9.989094734E-2,-2.034259558E0,3.174509048E0
1.618536612E1,-7.337385416E-1,-2.407706738E0,3.064732552E0
1.619453312E1,-1.380471587E0,-2.604708195E0,2.728323936E0
1.620448712E1,-1.893668771E0,-2.738096476E0,2.308434486E0
1.621590112E1,-2.159002542E0,-2.716629028E0,1.892353058E0
1.622543512E1,-2.075240612E0,-2.516328573E0,1.444581985E0
1.623464512E1,-1.745020151E0,-2.263578176E0,9.487571716E-1
1.624450112E1,-1.186270714E0,-2.205301762E0,4.486322403E-1
1.625454712E1,-5.375645161E-1,-2.259853840E0,-1.122856140E-2
1.626481112E1,2.728611231E-2,-2.267212152E0,-3.011846542E-1
1.627465612E1,4.755031466E-1,-2.257512569E0,-5.932993889E-1
1.628463412E1,8.879107237E-1,-2.269873142E0,-6.741080284E-1
1.629463012E1,1.203324556E0,-2.267898083E0,-6.668872833E-1
1.630480112E1,1.317874670E0,-2.260977268E0,-5.612545013E-1
1.631475512E1,1.259264231E0,-2.289321423E0,-3.602705002E-1
1.632485412E1,1.038564682E0,-2.340287924E0,-2.126770020E-1
1.633437312E1,7.116846442E-1,-2.368481159E0,-8.748912811E-2
1.634530712E1,3.367116451E-1,-2.305636883E0,5.084991455E-3
1.635443712E1,1.848989725E-2,-2.204278946E0,2.637004852E-2
1.636435212E1,-1.506697237E-1,-2.133548737E0,-1.018810272E-2
1.637861812E1,-2.455651164E-1,-1.988373995E0,-3.721103668E-1
1.639501412E1,-1.791483760E-1,-1.909322023E0,-6.630554199E-1
1.640442612E1,-6.178483367E-2,-1.794477701E0,-9.727225304E-1
1.641474412E1,1.298689246E-1,-1.672386169E0,-1.262259960E0
1.642452712E1,3.644274771E-1,-1.597595692E0,-1.498316765E0
1.643453712E1,4.649016857E-1,-1.489915848E0,-1.677228928E0
1.644538712E1,4.713347852E-1,-1.350103378E0,-1.734029293E0
1.645533112E1,3.635448515E-1,-1.234604359E0,-1.687117577E0
1.646484012E1,1.846592277E-1,-1.117155552E0,-1.584516048E0
1.647490212E1,-3.638429940E-2,-9.970035553E-1,-1.391788960E0
1.648462212E1,-2.075378448E-1,-8.943207264E-1,-1.156836987E0
1.649441212E1,-2.780046165E-1,-7.737374306E-1,-9.900708199E-1
1.650444712E1,-2.811018229E-1,-6.722531319E-1,-8.214530945E-1
1.651638212E1,-1.655780971E-1,-4.595828056E-1,-5.437698364E-1
1.652457212E1,-1.950064451E-1,-4.503111839E-1,-5.489521027E-1
1.653451612E1,-8.632716537E-2,-4.232764244E-1,-4.646854401E-1
1.654447512E1,-1.137586311E-1,-3.598046303E-1,-4.942264557E-1
1.655450812E1,-1.477291435E-2,-2.797346115E-1,-5.050134659E-1
1.656434512E1,1.642798632E-2,-2.131147385E-1,-4.200515747E-1
1.657468712E1,1.132844314E-1,-9.679937363E-2,-2.334499359E-1
1.658439512E1,9.528642148E-2,-9.604883194E-2,7.820987701E-2
1.659479412E1,1.796074957E-2,-1.504540443E-1,4.568901062E-1
1.660465212E1,-1.130332351E-1,-2.107582092E-1,8.355007172E-1
1.661450212E1,-3.046544194E-1,-2.290253639E-1,1.196685791E0
1.662475112E1,-4.894527793E-1,-2.154550552E-1,1.518092155E0
1.663508612E1,-6.334494352E-1,-2.163872719E-1,1.828367233E0
1.664472112E1,-7.111978531E-1,-1.000533104E-1,2.053317070E0
1.665450112E1,-7.104437351E-1,9.443998337E-2,2.274776459E0
1.666483612E1,-6.136739254E-1,2.085356712E-1,2.511017799E0
1.667461312E1,-4.741681218E-1,2.661027908E-1,2.624423027E0
1.668574612E1,-3.970918953E-1,4.082388878E-1,2.657009125E0
1.669484812E1,-3.118589520E-1,5.639262199E-1,2.619630814E0
1.670485612E1,-1.165054440E-1,6.135210991E-1,2.604606628E0
1.671457412E1,1.470126510E-1,6.339082718E-1,2.698123932E0
1.672438812E1,3.851031661E-1,7.134017944E-1,2.851445198E0
1.673449512E1,6.770170927E-1,7.440581322E-1,3.131822586E0
1.674488612E1,1.062731504E0,6.013784409E-1,3.409272194E0
1.675485712E1,1.555663466E0,1.871080399E-1,3.557819366E0
1.676466512E1,1.882135868E0,-2.476696968E-1,3.385099411E0
1.677450812E1,1.959396362E0,-6.714620590E-1,3.256889343E0
1.678488312E1,1.881534934E0,-1.212146521E0,3.216731071E0
1.679656212E1,1.537029028E0,-1.630888939E0,3.115336418E0
1.680465012E1,8.630381227E-1,-1.746289253E0,2.940728188E0
1.681453012E1,2.214739919E-1,-1.838876724E0,2.615712166E0
1.682479712E1,-1.205203533E-1,-2.063016176E0,1.961164474E0
1.683442512E1,-3.895559013E-1,-2.326968431E0,1.027129173E0
1.684450612E1,-6.869492531E-1,-2.474914074E0,1.935472488E-1
1.685460212E1,-1.015479684E0,-2.429809332E0,-6.953773499E-1
1.686463912E1,-1.222427368E0,-2.296142817E0,-1.444284439E0
1.687456912E1,-1.205922127E0,-2.106017113E0,-2.018520832E0
1.688445212E1,-9.009028673E-1,-1.972963810E0,-2.383552551E0
1.689485612E1,-3.288337290E-1,-1.935272455E0,-2.479239464E0
1.690472712E1,2.229989171E-1,-2.002436638E0,-2.411672592E0
1.691437212E1,6.113863587E-1,-2.052765131E0,-2.082989693E0
1.692432612E1,7.231737971E-1,-2.066556931E0,-1.637169361E0
1.693458912E1,6.128594875E-1,-2.097920418E0,-1.114937782E0
1.694454912E1,3.961877227E-1,-2.130963802E0,-6.190600395E-1
1.695458012E1,6.909066439E-2,-2.196848869E0,-1.828899384E-1
1.696442512E1,-3.876587152E-1,-2.209103346E0,1.027641296E-1
1.697482512E1,-9.096928835E-1,-2.124915123E0,1.873588562E-1
1.698510212E1,-1.327398539E0,-2.028900623E0,1.240053177E-1
1.699456112E1,-1.560427785E0,-1.876703978E0,-6.550025940E-2
1.700481112E1,-1.555098534E0,-1.735662460E0,-3.236503601E-1
1.701434312E1,-1.322675109E0,-1.592342138E0,-6.591415405E-1
1.702438912E1,-9.831200838E-1,-1.438995600E0,-1.107883930E0
1.703481712E1,-6.641857028E-1,-1.269366264E0,-1.519416332E0
1.704493712E1,-4.597568512E-1,-1.124951601E0,-1.830092430E0
1.705478212E1,-3.151315451E-1,-9.387605190E-1,-2.129239082E0
1.706538012E1,-1.752664149E-1,-7.932267189E-1,-2.413495064E0
1.707500412E1,-5.588029325E-2,-6.664478779E-1,-2.330042362E0
1.708466712E1,4.556611180E-2,-5.155706406E-1,-2.139827251E0
1.709467612E1,1.561633497E-1,-3.588552475E-1,-2.145001888E0
1.710439712E1,3.194308281E-1,-2.772731781E-1,-1.394627571E0
1.711488212E1,3.609035611E-1,-2.726655006E-1,-9.889984131E-1
1.712510212E1,3.760917485E-1,-2.331795692E-1,-6.386051178E-1
1.713449012E1,3.521240056E-1,-1.813521385E-1,-3.109397888E-1
1.714485112E1,3.277876079E-1,-1.096434593E-1,6.556606293E-2
1.715443612E1,3.241575956E-1,-5.240297318E-2,4.590644836E-1
1.716462512E1,2.907951176E-1,-7.215023041E-3,7.115240097E-1
1.717484612E1,1.582866311E-1,5.946540833E-2,9.467477798E-1
1.718433712E1,6.998918951E-3,1.631779671E-1,1.192938805E0
1.719462712E1,-1.279258281E-1,1.996817589E-1,1.318861961E0
1.720456912E1,-2.790710926E-1,2.248754501E-1,1.423545837E0
1.721440212E1,-3.995325565E-1,2.626900673E-1,1.498011589E0
1.722522812E1,-4.375305772E-1,2.149167061E-1,1.608717918E0
1.723577812E1,-4.410631359E-1,1.432452202E-1,1.749343872E0
1.724458412E1,-3.958000839E-1,1.127524376E-1,1.970530510E0
1.725439912E1,-2.564661503E-1,3.023099899E-2,2.273972511E0
1.726478612E1,-1.075365394E-1,4.649162292E-4,2.588718414E0
1.727470312E1,-8.153013885E-2,1.398372650E-1,2.839230537E0
1.728546012E1,-8.741817623E-2,3.657903671E-1,3.171542168E0
1.729445412E1,-1.211937517E-1,5.483026505E-1,3.393296242E0
1.730485712E1,-1.093240082E-1,6.934299469E-1,3.535582542E0
1.731632112E1,-1.360541880E-1,7.875828743E-1,3.522606850E0
1.732452812E1,-1.190437302E-1,7.933049202E-1,3.380280495E0
1.733434712E1,6.469941139E-2,6.646871567E-1,3.178841591E0
1.734447112E1,4.317784309E-1,3.340625763E-1,2.909651756E0
1.735432812E1,7.380252481E-1,-1.396903992E-1,2.660038948E0
1.736577312E1,7.173190117E-1,-5.303294659E-1,2.476756096E0
1.737481712E1,2.752461135E-1,-8.581466675E-1,2.308190346E0
1.738512312E1,-2.154537439E-1,-1.212831974E0,2.155515671E0
1.739449512E1,-6.587340832E-1,-1.514323473E0,1.910353661E0
1.740562212E1,-1.087076426E0,-1.827197313E0,1.326546669E0
1.741444912E1,-1.499600172E0,-2.081818342E0,6.846485138E-1
1.742440712E1,-1.839656472E0,-2.207803011E0,-1.096630096E-2
1.743583412E1,-2.154202938E0,-2.223999023E0,-6.274862289E-1
1.744457712E1,-2.340409994E0,-2.255444050E0,-1.174734592E0
1.745473012E1,-2.373671293E0,-2.297558546E0,-1.522106647E0
1.746445412E1,-2.368764400E0,-2.270979166E0,-1.690593719E0
1.747690312E1,-2.312566042E0,-2.265255690E0,-1.784499168E0
1.748545512E1,-2.082007885E0,-2.346912622E0,-1.732540607E0
1.749453812E1,-1.694847822E0,-2.434487104E0,-1.478991032E0
1.750435912E1,-1.266892433E0,-2.494881868E0,-1.133707523E0
1.751433912E1,-8.217309713E-1,-2.537948608E0,-7.445893288E-1
1.752449612E1,-5.290507674E-1,-2.532810211E0,-3.590745926E-1
1.753444012E1,-4.155348539E-1,-2.534141541E0,-1.957798004E-2
1.754490812E1,-4.636725783E-1,-2.494250298E0,2.923746109E-1
1.755543812E1,-6.548762918E-1,-2.403666973E0,5.208234787E-1
1.756466912E1,-8.665466905E-1,-2.343894005E0,5.651845932E-1
1.757437412E1,-1.121282697E0,-2.274981022E0,2.858009338E-1
1.758439712E1,-1.351197243E0,-2.107498407E0,-6.269454956E-3
1.759440212E1,-1.488048792E0,-1.939650297E0,-3.656511307E-1
1.760460812E1,-1.500819325E0,-1.868021488E0,-6.779031754E-1
1.761433212E1,-1.365577221E0,-1.759538889E0,-1.043514252E0
1.762446012E1,-1.119042397E0,-1.666606903E0,-1.284233093E0
1.763461512E1,-6.202681661E-1,-1.567454576E0,-1.285255909E0
1.764507912E1,-5.386468768E-1,-1.458460808E0,-1.076332569E0
1.765439712E1,-5.163345337E-1,-1.407341003E0,-8.564996719E-1
1.766440012E1,-5.642603636E-1,-1.348164797E0,-7.303524017E-1
1.767440612E1,-6.456212401E-1,-1.245059729E0,-6.304683685E-1
1.768481812E1,-7.148725986E-1,-1.141538382E0,-5.207128525E-1
1.769468612E1,-7.351227999E-1,-1.035797834E0,-4.940805435E-1
1.770487712E1,-6.862251759E-1,-9.203243256E-1,-4.249334335E-1
1.771432612E1,-5.939555168E-1,-8.035295010E-1,-3.879556656E-1
1.772612212E1,-5.011490583E-1,-6.475472450E-1,-2.921991348E-1
1.773591512E1,-3.897149265E-1,-5.005271435E-1,-6.685447693E-2
1.774438712E1,-3.249417245E-1,-4.021866322E-1,1.094141006E-1
1.775452612E1,-2.331174165E-1,-2.859003544E-1,3.110189438E-1
1.776445712E1,-2.030583769E-1,-1.378934383E-1,4.245147705E-1
1.777438612E1,-2.334215194E-1,1.111936569E-2,5.665826797E-1
1.778472812E1,-2.855564952E-1,1.726021767E-1,7.910108566E-1
1.779444012E1,-4.276189804E-1,2.529246807E-1,9.365892410E-1
1.780439912E1,-5.149263740E-1,3.380932808E-1,1.011968613E0
1.781433812E1,-5.479495525E-1,4.315302372E-1,8.843021393E-1
1.782445912E1,-4.822684228E-1,5.137529373E-1,8.496456146E-1
1.783427612E1,-3.465123475E-1,5.635983944E-1,8.745059967E-1
1.784469612E1,-2.623632252E-1,5.292990208E-1,9.062128067E-1
1.785473112E1,-2.850124240E-1,5.578427315E-1,1.130691528E0
1.786459812E1,-3.737857044E-1,6.061081886E-1,1.530730247E0
1.787653012E1,-3.728805482E-1,5.535578728E-1,1.979764938E0
1.788952212E1,-3.696486056E-1,5.938458443E-1,2.626368523E0
1.790452112E1,-2.668715119E-1,6.680200100E-1,2.801688194E0
1.791829312E1,1.078983769E-2,6.751708984E-1,2.937785149E0
1.793514912E1,8.751203418E-1,7.390193939E-1,3.025064468E0
1.794453012E1,1.361209869E0,6.982595921E-1,3.073807716E0
1.795437812E1,1.798430443E0,4.871075153E-1,3.184488297E0
1.796443012E1,2.036937475E0,1.700003147E-1,3.163146019E0
1.797436012E1,2.026528835E0,-1.986219883E-1,3.033421516E0
1.798456612E1,1.810430050E0,-5.666987896E-1,2.888353348E0
1.799436712E1,1.348662972E0,-9.016168118E-1,2.708949089E0
1.800471812E1,7.327777147E-1,-1.206046343E0,2.528980255E0
1.801490412E1,1.477702260E-1,-1.425863981E0,2.184089661E0
1.802441912E1,-2.337663770E-1,-1.595397234E0,1.622565269E0
1.803510312E1,-4.596551657E-1,-1.722220778E0,9.817390442E-1
1.804523012E1,-4.987383485E-1,-1.742966056E0,3.955249786E-1
1.805454312E1,-3.588124216E-1,-1.607325315E0,-1.889390945E-1
1.806464412E1,8.069339395E-2,-1.466118097E0,-7.158393860E-1
1.807561112E1,8.143827915E-1,-1.471614838E0,-1.057830334E0
1.808433412E1,1.616179228E0,-1.528226614E0,-1.259269714E0
1.809515112E1,2.181316376E0,-1.473151922E0,-1.450216770E0
1.810483212E1,2.516811848E0,-1.324594736E0,-1.730067253E0
1.811437312E1,2.662880898E0,-1.318192005E0,-1.899508476E0
1.813039112E1,2.169447899E0,-1.329998493E0,-1.868775368E0
1.814479312E1,1.590512753E0,-1.288520336E0,-1.600792885E0
1.815466512E1,9.400474429E-1,-1.275223970E0,-1.244572163E0
1.816458812E1,3.652859926E-1,-1.241549253E0,-8.180484772E-1
1.817440012E1,-4.797945619E-1,-1.219006777E0,-7.896184921E-1
1.818442312E1,-6.131983995E-1,-1.164697886E0,-9.089250565E-1
1.819442112E1,-5.879325867E-1,-1.095098972E0,-1.125427723E0
1.820479512E1,-4.475910366E-1,-9.528946877E-1,-1.427182674E0
1.821650212E1,-2.118173242E-1,-7.597730160E-1,-1.809635639E0
1.822481112E1,6.917113066E-2,-6.129345894E-1,-2.136292934E0
1.823457212E1,3.171403706E-1,-5.254805088E-1,-2.396060467E0
1.824466112E1,4.394742548E-1,-4.237201214E-1,-2.496674538E0
1.825448812E1,4.175032377E-1,-2.967369556E-1,-2.472217560E0
1.826571012E1,2.728918195E-1,-2.207915783E-1,-2.396413326E0
1.827458112E1,9.554916620E-2,-1.705241203E-1,-2.135313511E0
1.828479212E1,-2.922537923E-2,-9.382414818E-2,-1.780895710E0
1.829486812E1,-4.848989844E-2,-7.246541977E-2,-1.452898979E0
1.830444512E1,-5.985051394E-3,-4.115796089E-2,-1.097295284E0
1.831479512E1,7.678163052E-2,2.744674683E-2,-8.398351669E-1
1.832439312E1,1.760472953E-1,8.483958244E-2,-6.605730057E-1
1.833586212E1,2.748606205E-1,1.531965733E-1,-5.202989578E-1
1.834457912E1,3.355348408E-1,2.519500256E-1,-4.068431854E-1
1.835437912E1,3.751813769E-1,3.633279800E-1,-2.765903473E-1
1.836465912E1,3.903406858E-1,3.786473274E-1,-4.746341705E-2
1.837433312E1,3.789291978E-1,3.721067905E-1,1.728248596E-1
1.838552912E1,2.877979875E-1,3.275082111E-1,4.182014465E-1
1.839473912E1,1.649335325E-1,3.190021515E-1,6.058549881E-1
1.840445912E1,6.285670400E-2,3.236999512E-1,7.580423355E-1
1.841575512E1,-1.782163978E-2,4.144325256E-1,8.602447510E-1
1.842452412E1,-5.071192980E-2,5.101876259E-1,9.582643509E-1
1.843482112E1,4.642140865E-2,5.181469917E-1,1.101776123E0
1.844438912E1,2.549962103E-1,3.629841805E-1,1.273265839E0
1.845440112E1,4.591995478E-1,1.734499931E-1,1.374958992E0
1.846500712E1,4.792490602E-1,1.284003258E-1,1.488799095E0
1.847476612E1,4.026211798E-1,2.762641907E-1,1.706296921E0
1.848446812E1,3.248497844E-1,4.948611259E-1,2.038342476E0
1.849451612E1,3.790317774E-1,6.926088333E-1,2.447526932E0
1.850469812E1,5.556588173E-1,7.675824165E-1,2.848222733E0
1.851459212E1,6.945229769E-1,8.962802887E-1,3.035285950E0
1.852434412E1,6.806447506E-1,1.058422565E0,2.903844833E0
1.853618412E1,5.706120133E-1,1.191997528E0,2.533964157E0
1.854446312E1,4.919074774E-1,1.248456478E0,2.158073425E0
1.855442712E1,6.552971601E-1,1.249480724E0,1.663377762E0
1.856449212E1,9.613181353E-1,9.648852348E-1,1.437860489E0
1.857446212E1,1.159488082E0,5.518631935E-1,1.435957909E0
1.858472712E1,1.380162835E0,1.093101501E-1,1.706312180E0
1.859453712E1,1.583611727E0,-6.784915924E-1,2.208838463E0
1.860484312E1,1.370096922E0,-1.403055906E0,2.761394501E0
1.861468712E1,7.847098112E-1,-2.027196884E0,2.963503838E0
1.862464012E1,-2.590003610E-2,-2.561972380E0,2.812480927E0
1.863436312E1,-9.196040630E-1,-2.856560230E0,2.377680779E0
1.864452812E1,-1.683087707E0,-3.012188911E0,1.806924820E0
1.865434712E1,-2.196388245E0,-3.071960688E0,1.335365295E0
1.866483412E1,-2.459890604E0,-2.954284668E0,9.255065918E-1
1.867675412E1,-2.164541721E0,-2.397720337E0,6.282806396E-3
1.869447712E1,-1.403157949E0,-2.483145714E0,-3.789968491E-1
1.870463512E1,5.852767825E-1,-2.582802296E0,-9.888377190E-1
1.871435612E1,1.283359647E0,-2.542614937E0,-1.007277012E0
1.872489812E1,1.878787279E0,-2.599976540E0,-9.630832672E-1
1.873457712E1,2.121013641E0,-2.630778790E0,-9.609513283E-1
1.874449812E1,1.979150176E0,-2.624166250E0,-8.507814407E-1
1.875439912E1,1.490399718E0,-2.627079010E0,-6.450872421E-1
1.876467212E1,8.297449350E-1,-2.682593822E0,-3.724260330E-1
1.877427512E1,9.521175921E-2,-2.656969309E0,-1.279754639E-1
1.878451712E1,-6.122056246E-1,-2.513801098E0,9.306430817E-2
1.879606912E1,-1.148177624E0,-2.311146498E0,3.782691956E-1
1.880473412E1,-1.311433315E0,-2.172364235E0,5.119705200E-1
1.881430212E1,-1.126327634E0,-2.111479282E0,4.038372040E-1
1.882471712E1,-7.733559608E-1,-2.001510143E0,9.851551056E-2
1.883476712E1,-3.413137197E-1,-1.771580696E0,-2.750959396E-1
1.884579412E1,7.421395183E-2,-1.526217222E0,-7.169313431E-1
1.885434712E1,4.288853407E-1,-1.307002544E0,-1.066060543E0
1.886461212E1,6.628536582E-1,-1.127123117E0,-1.355925560E0
1.887432912E1,7.750823498E-1,-9.797151089E-1,-1.537980080E0
1.888474712E1,7.019494176E-1,-8.393383026E-1,-1.561445713E0
1.889444012E1,4.722101092E-1,-7.218828201E-1,-1.454375267E0
1.890487412E1,2.003197521E-1,-6.367077827E-1,-1.208094597E0
1.891443312E1,-1.851078868E-2,-6.028890610E-1,-9.281940460E-1
1.892487512E1,-1.777822077E-1,-5.825004578E-1,-6.439628601E-1
1.893456712E1,-2.863512933E-1,-5.537374020E-1,-4.328556061E-1
1.894440912E1,-3.406320214E-1,-5.023434162E-1,-3.248014450E-1
1.895438412E1,-3.639113307E-1,-4.566853046E-1,-3.672676086E-1
1.896443212E1,-3.793476820E-1,-3.807177544E-1,-4.692010880E-1
1.897460112E1,-3.731083870E-1,-2.389307022E-1,-6.565332413E-1
1.898465112E1,-3.069664836E-1,-8.393478394E-2,-8.529548645E-1
1.899657612E1,-1.842623353E-1,2.887773514E-2,-9.295673370E-1
1.900950462E1,-6.359568238E-2,1.802906990E-1,-8.335170746E-1
1.902443012E1,-1.021828949E-1,2.385940552E-1,-6.795196533E-1
1.903493812E1,-2.186062336E-1,2.314252853E-1,-4.490404129E-1
1.904477812E1,-3.500386178E-1,2.036972046E-1,-1.947298050E-1
1.905445912E1,-4.929404855E-1,1.856780052E-1,1.543121338E-1
1.906524312E1,-6.622731090E-1,2.247886658E-1,6.043510437E-1
1.907497512E1,-8.009480238E-1,2.361097336E-1,1.003838539E0
1.908474812E1,-9.349291921E-1,2.364091873E-1,1.419165611E0
1.909482712E1,-8.771157861E-1,2.664532661E-1,1.811298370E0
1.910450012E1,-8.735864162E-1,2.832536697E-1,2.009693146E0
1.911574212E1,-9.077171683E-1,4.021089077E-1,2.145752907E0
1.912465712E1,-9.650942087E-1,6.042249203E-1,2.174311638E0
1.913565912E1,-9.032868147E-1,7.338237762E-1,2.240839005E0
1.914456112E1,-7.909078598E-1,8.643143177E-1,2.298845291E0
1.915451212E1,-6.416031122E-1,9.822366238E-1,2.356208801E0
1.916446912E1,-3.881767392E-1,1.049022198E0,2.436756134E0
1.917462912E1,-1.208231747E-1,1.079898834E0,2.601293564E0
1.918437912E1,1.881614029E-1,1.188802481E0,2.820475578E0
1.919436212E1,6.021594405E-1,1.233874559E0,3.022892952E0
1.920485212E1,1.097046018E0,1.181502581E0,3.234481812E0
1.921447112E1,1.671437621E0,9.517457485E-1,3.334836960E0
1.922447012E1,2.146892309E0,4.876341820E-1,3.333812714E0
1.923461512E1,2.260177135E0,-5.440330505E-2,3.111703873E0
1.924494912E1,1.409193754E0,-1.159034252E0,2.406008720E0
1.925445612E1,7.920704484E-1,-1.547734737E0,2.025063515E0
1.926479312E1,8.317819238E-2,-1.780294657E0,1.754439354E0
1.927457512E1,-5.463106632E-1,-2.024392843E0,1.422803879E0
1.928513312E1,-9.889147878E-1,-2.239716053E0,8.585453033E-1
1.929442112E1,-1.272961497E0,-2.369670868E0,2.241163254E-1
1.930477112E1,-1.400711298E0,-2.401030779E0,-3.844356537E-1
1.931492112E1,-1.409721136E0,-2.232220888E0,-9.461131096E-1
1.932472412E1,-1.150948167E0,-1.999359369E0,-1.499967098E0
1.933604412E1,-4.544738233E-1,-1.896660089E0,-1.949769020E0
1.934470612E1,4.069514573E-1,-1.899440050E0,-2.245759964E0
1.935456812E1,1.106980085E0,-1.783645868E0,-2.380393982E0
1.936474512E1,1.660799026E0,-1.612845421E0,-2.362911701E0
1.937478612E1,1.996499896E0,-1.568563461E0,-2.310808659E0
1.938496412E1,2.131914377E0,-1.552515030E0,-2.103962898E0
1.939478612E1,2.021023750E0,-1.516874075E0,-1.727683544E0
1.940440712E1,1.721673727E0,-1.555778742E0,-1.163411617E0
1.941445612E1,1.173059106E0,-1.628916502E0,-5.493059158E-1
1.942435312E1,4.177360237E-1,-1.640563011E0,7.416152954E-2
1.943441312E1,-3.619032502E-1,-1.577270269E0,5.199871063E-1
1.944453912E1,-9.666161537E-1,-1.540549755E0,6.341533661E-1
1.945553312E1,-1.298106670E0,-1.481649637E0,6.095781326E-1
1.946446112E1,-1.411034942E0,-1.332355499E0,4.264144897E-1
1.947452212E1,-1.280885100E0,-1.150843859E0,9.543800354E-2
1.948495712E1,-9.410934448E-1,-9.665627480E-1,-3.389406204E-1
1.949446912E1,-4.231558442E-1,-8.196547031E-1,-8.546829224E-1
1.950459212E1,9.192615747E-3,-7.131688595E-1,-1.304989815E0
1.951441212E1,2.943001986E-1,-6.024813652E-1,-1.595695019E0
1.952441612E1,4.558670223E-1,-5.570244789E-1,-1.864247799E0
1.953454912E1,4.008995891E-1,-4.995861053E-1,-1.898962498E0
1.954439912E1,1.547310054E-1,-4.451549053E-1,-1.795316219E0
1.955555812E1,-1.378268898E-1,-4.140362740E-1,-1.510260582E0
1.956437512E1,-3.589839935E-1,-4.166069031E-1,-1.099767208E0
1.957917712E1,-4.750683010E-1,-4.253525734E-1,-6.637248993E-1
1.959464412E1,-4.667382538E-1,-4.545238018E-1,-3.209877014E-2
1.960487312E1,-3.976026177E-1,-3.991549015E-1,1.303186417E-1
1.961439012E1,-2.923541665E-1,-3.538441658E-1,1.508512497E-1
1.962628112E1,-1.941679418E-1,-3.274521828E-1,1.093873978E-1
1.963449312E1,-1.253188550E-1,-2.696180344E-1,6.569480896E-2
1.964478512E1,-9.457856417E-2,-2.498965263E-1,-5.187988281E-3
1.965441012E1,-1.182756722E-1,-1.966087818E-1,-3.844451904E-2
1.966436112E1,-1.851975620E-1,-1.582562923E-1,7.290554047E-2
1.967441212E1,-2.410324216E-1,-1.707961559E-1,2.350234985E-1
1.968466712E1,-2.483040392E-1,-9.582567215E-2,4.862060547E-1
1.969479512E1,-3.286445141E-1,-3.357338905E-2,7.800664902E-1
1.970482212E1,-4.748704433E-1,-2.960300446E-2,1.249355316E0
1.971579612E1,-5.228518844E-1,-1.863133907E-1,2.016320229E0
1.972488312E1,-4.963832498E-1,-1.546649933E-1,2.004690170E0
1.973438112E1,-4.382103682E-1,-2.697856426E-1,2.145597458E0
1.974442512E1,-3.444830179E-1,-2.741549015E-1,2.155901909E0
1.975437712E1,-1.418172717E-1,-2.313899994E-1,2.140319824E0
1.976653312E1,9.151887894E-2,2.984535694E-1,1.945733070E0
1.977473412E1,2.587684393E-1,6.124298573E-1,1.910596848E0
1.978475412E1,4.475200176E-1,7.505965233E-1,1.858553886E0
1.979439212E1,5.240051746E-1,9.033679962E-1,1.762927055E0
1.980440112E1,5.165453553E-1,1.111911774E0,1.829424858E0
1.981466612E1,7.143251896E-1,1.238524437E0,1.999194145E0
1.982442012E1,1.133290768E0,1.277564049E0,2.249298096E0
1.983458612E1,1.657114625E0,8.061351776E-1,2.752834320E0
1.984459112E1,1.918325901E0,2.620329857E-1,3.260436058E0
1.985447312E1,1.907435298E0,-1.296410561E-1,3.330973625E0
1.986481912E1,1.395578861E0,-5.630846024E-1,3.223985672E0
1.987561112E1,6.987808943E-1,-1.013859749E0,2.839577675E0
1.988475012E1,-3.283667564E-2,-1.363724470E0,2.123379707E0
1.989440512E1,-6.506067514E-1,-1.494488716E0,1.347733498E0
1.990437812E1,-1.082517028E0,-1.561219931E0,6.292495728E-1
1.991467912E1,-1.288307190E0,-1.636840343E0,6.188106537E-2
1.992463312E1,-1.317700624E0,-1.640116930E0,-3.341350555E-1
1.993441312E1,-1.169523716E0,-1.678097963E0,-7.512578964E-1
1.994480012E1,-1.039741039E0,-1.757463932E0,-1.203473091E0
1.995471712E1,-9.549680352E-1,-1.835766554E0,-1.551903725E0
1.996459112E1,-9.099384546E-1,-1.825989008E0,-1.839027405E0
1.997444212E1,-9.555422664E-1,-1.812429190E0,-2.045954227E0
1.998452312E1,-1.016559839E0,-1.836321831E0,-2.167856693E0
1.999598612E1,-1.103426695E0,-1.870585680E0,-2.236020088E0
2.000450512E1,-1.175554514E0,-1.903913021E0,-2.169947624E0
2.001442412E1,-1.178052664E0,-1.926414013E0,-1.986856937E0
2.002444912E1,-1.040170789E0,-2.018687963E0,-1.540263653E0
2.003478112E1,-6.957335472E-1,-2.199577570E0,-8.001914024E-1
2.004715412E1,-3.210330009E-1,-2.420938969E0,-4.110717773E-2
2.006464912E1,-4.826441407E-2,-2.313987970E0,1.475365639E0
2.007639112E1,6.803059578E-2,-2.307763338E0,2.207372665E0
2.008466412E1,1.659134775E-1,-2.477201462E0,2.567325592E0
2.009442212E1,8.041984588E-2,-2.549191952E0,2.445506096E0
2.010468912E1,-1.618878841E-1,-2.501933813E0,1.881365776E0
2.011457012E1,-4.947963357E-1,-2.286600351E0,1.159507751E0
2.012435912E1,-7.078602314E-1,-1.968618393E0,5.509023666E-1
2.013480612E1,-7.527592778E-1,-1.719182253E0,8.076858521E-2
2.014443312E1,-5.083221793E-1,-1.572726965E0,-4.861812592E-1
2.015448912E1,-2.072285116E-1,-1.502022505E0,-8.439755440E-1
2.016466112E1,-9.685099125E-3,-1.388070345E0,-1.103405476E0
2.017445512E1,1.364506483E-1,-1.286774397E0,-1.298917294E0
2.018486612E1,2.585838735E-1,-1.214740276E0,-1.476495266E0
2.019477812E1,2.997695506E-1,-1.122180223E0,-1.605192661E0
2.020450112E1,2.744121253E-1,-1.038321257E0,-1.609266758E0
2.021456712E1,2.287770510E-1,-9.322581291E-1,-1.555047512E0
2.022442812E1,1.668967903E-1,-8.273224831E-1,-1.466784954E0
2.023491512E1,9.857860208E-2,-7.701475620E-1,-1.313325405E0
2.024507812E1,2.190029621E-2,-7.184963226E-1,-1.122325420E0
2.025476812E1,-9.269231558E-2,-6.278865337E-1,-8.782238960E-1
2.026450412E1,-1.820816398E-1,-5.293481350E-1,-5.325317383E-1
2.027433112E1,-2.047960162E-1,-4.057493210E-1,-3.086299896E-1
2.028443112E1,-2.733840942E-1,-2.868626118E-1,-7.301902771E-2
2.029552812E1,-2.572768927E-1,-6.919479370E-2,3.649663925E-1
2.030535412E1,-1.595098972E-1,4.621362686E-2,4.986801147E-1
2.031440212E1,-8.961582184E-2,1.472926140E-1,6.195077896E-1
2.032437512E1,-5.769172311E-2,2.496998310E-1,6.887321472E-1
2.033500812E1,-7.332971692E-2,3.198134899E-1,8.873796463E-1
2.034794312E1,-4.241964221E-2,3.566830158E-1,1.011272430E0
2.036450112E1,-1.508925706E-1,3.002891541E-1,1.005814552E0
2.037456412E1,-2.347856462E-1,2.736461163E-1,9.414882660E-1
2.038505012E1,-3.106536567E-1,2.397520542E-1,9.132680893E-1
2.039454112E1,-3.426324129E-1,2.190926075E-1,1.088172913E0
2.040462212E1,-3.477266431E-1,2.341110706E-1,1.398721695E0
2.041479912E1,-3.259647787E-1,2.290458679E-1,1.729516983E0
2.042438912E1,-2.822318673E-1,2.018294334E-1,2.048985481E0
2.043525812E1,-1.948049366E-1,2.147901058E-1,2.306154251E0
2.044483312E1,-1.518811435E-1,2.783403397E-1,2.508158684E0
2.045466612E1,-1.078361124E-1,4.056208134E-1,2.698871613E0
2.046786812E1,3.300224245E-2,4.970846176E-1,2.754586220E0
2.048448112E1,5.046265125E-1,7.667808533E-1,2.626474380E0
2.049755612E1,7.457816005E-1,8.391449451E-1,2.389682770E0
2.051447712E1,1.425698757E0,5.378031731E-1,1.843491554E0
2.052443412E1,1.777565479E0,2.198772430E-1,1.469931602E0
2.053491212E1,1.942105770E0,-1.376664639E-1,1.221795082E0
2.054450312E1,1.849279642E0,-5.588197708E-1,1.240278244E0
2.055441512E1,1.436348438E0,-1.006043434E0,1.281312943E0
2.056436312E1,9.728999138E-1,-1.460139751E0,1.416049004E0
2.057447012E1,6.256585121E-1,-1.817785501E0,1.303523064E0
2.058572512E1,1.513595879E-1,-2.184122562E0,9.551830292E-1
2.059449012E1,-8.139007092E-1,-1.447487354E0,2.385711670E-2
2.060434912E1,-1.115715384E0,-1.333056450E0,-6.634912491E-1
2.061445412E1,-8.114098907E-1,-1.771823287E0,-8.106184006E-1
2.062462112E1,-5.399221182E-1,-2.014474392E0,-8.131952286E-1
2.063447112E1,-4.276129603E-1,-1.761680007E0,-8.610897064E-1
2.064466612E1,-2.123657167E-1,-1.464775801E0,-1.036702156E0
2.065471712E1,2.903558612E-1,-1.311792850E0,-1.367142200E0
2.066490912E1,8.881085515E-1,-1.108376026E0,-1.550921917E0
2.067467212E1,1.450574040E0,-9.759757519E-1,-1.676556587E0
2.068505712E1,1.971501708E0,-1.043201208E0,-1.773928642E0
2.069456912E1,2.250012875E0,-1.131850958E0,-1.671326637E0
2.070437712E1,2.395440578E0,-1.162247419E0,-1.387043953E0
2.071472512E1,2.340878725E0,-1.264391661E0,-8.494434357E-1
2.072434412E1,2.062504768E0,-1.469854355E0,-1.330337524E-1
2.073432312E1,1.560780525E0,-1.610805988E0,3.686618805E-1
2.074450412E1,7.702559233E-1,-1.580460072E0,8.100023270E-1
2.075452512E1,-2.054257691E-2,-1.398685455E0,1.292073250E0
2.076470712E1,-5.526771545E-1,-1.244975090E0,1.585539818E0
2.077569612E1,-6.890791655E-1,-1.036637068E0,6.118555069E-1
2.078480612E1,-5.341756940E-1,-8.676533699E-1,6.000986099E-1
2.079451212E1,-1.987107098E-1,-7.227544785E-1,-1.226367950E-1
2.080440012E1,1.625469178E-1,-5.800275803E-1,-4.619932175E-1
2.081439112E1,3.680183291E-1,-3.765258789E-1,-8.465042114E-1
2.082530312E1,5.580068231E-1,2.644634247E-2,-2.201003075E0
2.083461112E1,5.723958611E-1,-2.772498131E-2,-2.177659035E0
2.084469212E1,5.009828806E-1,4.289484024E-2,-2.938564301E0
2.085437212E1,3.331643343E-1,1.663949490E-1,-2.959324837E0
